[{"rt":1368.750000023283,"stimulus":"Welcome abin. Press any key to continue.","key_press":32,"trial_type":"html-keyboard-response","trial_index":0,"time_elapsed":1542,"internal_node_id":"0.0-0.0"},{"rt":588.7449999572709,"stimulus":"<p>In this experiment, you will see a series of line drawings of bugs which can be classified either as Category A bugs or as Category B bugs.<br> Your job is to look carefully at each bug and decide if it belongs to Category A or Category B.</p> <p>Press “a” on the keyboard if you think it is a Category A bug and “b” if you think it is a Category B bug.<br> At first, the task will seem quite difficult, but with time and practice, you should be able to answer correctly</p><p>Press any key to continue</p>","key_press":32,"trial_type":"html-keyboard-response","trial_index":1,"time_elapsed":2133,"internal_node_id":"0.0-1.0"},{"rt":512.2749999864027,"stimulus":"<p>This is the training phase of the experiment. Feedback will be provided after each trial in this session. The total number of trials in this phase are 180.<br>Press any key to begin.</p>","key_press":32,"trial_type":"html-keyboard-response","trial_index":2,"time_elapsed":2646,"internal_node_id":"0.0-2.0"},{"rt":null,"stimulus":"<div style=\"font-size:60px;\">+</div>","key_press":null,"test_part":"fixation","trial_type":"html-keyboard-response","trial_index":3,"time_elapsed":3454,"internal_node_id":"0.0-3.0-0.0"},{"rt":2834.900000016205,"correct":false,"stimulus":"stimulus/B9.jpg","key_press":65,"total":"exp","test_part":"train","correct_response":"B","trial_type":"categorize-image","trial_index":4,"time_elapsed":8300,"internal_node_id":"0.0-3.0-1.0"},{"rt":null,"stimulus":"<div style=\"font-size:60px;\">+</div>","key_press":null,"test_part":"fixation","trial_type":"html-keyboard-response","trial_index":5,"time_elapsed":9115,"internal_node_id":"0.0-3.0-0.1"},{"rt":1714.4049999769777,"correct":false,"stimulus":"stimulus/A2.jpg","key_press":66,"total":"exp","test_part":"test_seen","correct_response":"A","trial_type":"categorize-image","trial_index":6,"time_elapsed":12842,"internal_node_id":"0.0-3.0-1.1"},{"rt":null,"stimulus":"<div style=\"font-size:60px;\">+</div>","key_press":null,"test_part":"fixation","trial_type":"html-keyboard-response","trial_index":7,"time_elapsed":13648,"internal_node_id":"0.0-3.0-0.2"},{"rt":1929.2399999685585,"correct":false,"stimulus":"stimulus/A5.jpg","key_press":66,"total":"exp","test_part":"train","correct_response":"A","trial_type":"categorize-image","trial_index":8,"time_elapsed":17582,"internal_node_id":"0.0-3.0-1.2"},{"rt":null,"stimulus":"<div style=\"font-size:60px;\">+</div>","key_press":null,"test_part":"fixation","trial_type":"html-keyboard-response","trial_index":9,"time_elapsed":18384,"internal_node_id":"0.0-3.0-0.3"},{"rt":1302.2350000683218,"correct":true,"stimulus":"stimulus/B11.jpg","key_press":66,"total":"exp","test_part":"train","correct_response":"B","trial_type":"categorize-image","trial_index":10,"time_elapsed":21691,"internal_node_id":"0.0-3.0-1.3"},{"rt":null,"stimulus":"<div style=\"font-size:60px;\">+</div>","key_press":null,"test_part":"fixation","trial_type":"html-keyboard-response","trial_index":11,"time_elapsed":22292,"internal_node_id":"0.0-3.0-0.4"},{"rt":2278.015000047162,"correct":false,"stimulus":"stimulus/A6.jpg","key_press":66,"total":"exp","test_part":"train","correct_response":"A","trial_type":"categorize-image","trial_index":12,"time_elapsed":26573,"internal_node_id":"0.0-3.0-1.4"},{"rt":null,"stimulus":"<div style=\"font-size:60px;\">+</div>","key_press":null,"test_part":"fixation","trial_type":"html-keyboard-response","trial_index":13,"time_elapsed":27375,"internal_node_id":"0.0-3.0-0.5"},{"rt":2971.2499999441206,"correct":false,"stimulus":"stimulus/B12.jpg","key_press":65,"total":"exp","test_part":"train","correct_response":"B","trial_type":"categorize-image","trial_index":14,"time_elapsed":32356,"internal_node_id":"0.0-3.0-1.5"},{"rt":null,"stimulus":"<div style=\"font-size:60px;\">+</div>","key_press":null,"test_part":"fixation","trial_type":"html-keyboard-response","trial_index":15,"time_elapsed":32965,"internal_node_id":"0.0-3.0-0.6"},{"rt":3294.5250000339,"correct":false,"stimulus":"stimulus/B14.jpg","key_press":65,"total":"exp","test_part":"test_seen","correct_response":"B","trial_type":"categorize-image","trial_index":16,"time_elapsed":38271,"internal_node_id":"0.0-3.0-1.6"},{"rt":null,"stimulus":"<div style=\"font-size:60px;\">+</div>","key_press":null,"test_part":"fixation","trial_type":"html-keyboard-response","trial_index":17,"time_elapsed":38883,"internal_node_id":"0.0-3.0-0.7"},{"rt":826.9999999320135,"correct":false,"stimulus":"stimulus/B13.jpg","key_press":65,"total":"exp","test_part":"train","correct_response":"B","trial_type":"categorize-image","trial_index":18,"time_elapsed":41722,"internal_node_id":"0.0-3.0-1.7"},{"rt":null,"stimulus":"<div style=\"font-size:60px;\">+</div>","key_press":null,"test_part":"fixation","trial_type":"html-keyboard-response","trial_index":19,"time_elapsed":42333,"internal_node_id":"0.0-3.0-0.8"},{"rt":4242.360000032932,"correct":true,"stimulus":"stimulus/A3.jpg","key_press":65,"total":"exp","test_part":"train","correct_response":"A","trial_type":"categorize-image","trial_index":20,"time_elapsed":48579,"internal_node_id":"0.0-3.0-1.8"},{"rt":null,"stimulus":"<div style=\"font-size:60px;\">+</div>","key_press":null,"test_part":"fixation","trial_type":"html-keyboard-response","trial_index":21,"time_elapsed":49384,"internal_node_id":"0.0-3.0-0.9"},{"rt":1760.024999966845,"correct":true,"stimulus":"stimulus/A4.jpg","key_press":65,"total":"exp","test_part":"train","correct_response":"A","trial_type":"categorize-image","trial_index":22,"time_elapsed":53149,"internal_node_id":"0.0-3.0-1.9"},{"rt":null,"stimulus":"<div style=\"font-size:60px;\">+</div>","key_press":null,"test_part":"fixation","trial_type":"html-keyboard-response","trial_index":23,"time_elapsed":53766,"internal_node_id":"0.0-3.0-0.10"},{"rt":1025.2950000576675,"correct":false,"stimulus":"stimulus/A3.jpg","key_press":66,"total":"exp","test_part":"train","correct_response":"A","trial_type":"categorize-image","trial_index":24,"time_elapsed":56805,"internal_node_id":"0.0-3.0-1.10"},{"rt":null,"stimulus":"<div style=\"font-size:60px;\">+</div>","key_press":null,"test_part":"fixation","trial_type":"html-keyboard-response","trial_index":25,"time_elapsed":57414,"internal_node_id":"0.0-3.0-0.11"},{"rt":892.5449999514967,"correct":false,"stimulus":"stimulus/A4.jpg","key_press":66,"total":"exp","test_part":"train","correct_response":"A","trial_type":"categorize-image","trial_index":26,"time_elapsed":60321,"internal_node_id":"0.0-3.0-1.11"},{"rt":null,"stimulus":"<div style=\"font-size:60px;\">+</div>","key_press":null,"test_part":"fixation","trial_type":"html-keyboard-response","trial_index":27,"time_elapsed":61135,"internal_node_id":"0.0-3.0-0.12"},{"rt":1167.8300000494346,"correct":true,"stimulus":"stimulus/A2.jpg","key_press":65,"total":"exp","test_part":"test_seen","correct_response":"A","trial_type":"categorize-image","trial_index":28,"time_elapsed":64322,"internal_node_id":"0.0-3.0-1.12"},{"rt":null,"stimulus":"<div style=\"font-size:60px;\">+</div>","key_press":null,"test_part":"fixation","trial_type":"html-keyboard-response","trial_index":29,"time_elapsed":65135,"internal_node_id":"0.0-3.0-0.13"},{"rt":900.0349999405444,"correct":true,"stimulus":"stimulus/B13.jpg","key_press":66,"total":"exp","test_part":"train","correct_response":"B","trial_type":"categorize-image","trial_index":30,"time_elapsed":68039,"internal_node_id":"0.0-3.0-1.13"},{"rt":null,"stimulus":"<div style=\"font-size:60px;\">+</div>","key_press":null,"test_part":"fixation","trial_type":"html-keyboard-response","trial_index":31,"time_elapsed":68852,"internal_node_id":"0.0-3.0-0.14"},{"rt":764.6950000198558,"correct":true,"stimulus":"stimulus/A5.jpg","key_press":65,"total":"exp","test_part":"train","correct_response":"A","trial_type":"categorize-image","trial_index":32,"time_elapsed":71623,"internal_node_id":"0.0-3.0-1.14"},{"rt":null,"stimulus":"<div style=\"font-size:60px;\">+</div>","key_press":null,"test_part":"fixation","trial_type":"html-keyboard-response","trial_index":33,"time_elapsed":72233,"internal_node_id":"0.0-3.0-0.15"},{"rt":1195.4050000058487,"correct":false,"stimulus":"stimulus/B14.jpg","key_press":65,"total":"exp","test_part":"test_seen","correct_response":"B","trial_type":"categorize-image","trial_index":34,"time_elapsed":75437,"internal_node_id":"0.0-3.0-1.15"},{"rt":null,"stimulus":"<div style=\"font-size:60px;\">+</div>","key_press":null,"test_part":"fixation","trial_type":"html-keyboard-response","trial_index":35,"time_elapsed":76252,"internal_node_id":"0.0-3.0-0.16"},{"rt":1303.5849999869242,"correct":true,"stimulus":"stimulus/B11.jpg","key_press":66,"total":"exp","test_part":"train","correct_response":"B","trial_type":"categorize-image","trial_index":36,"time_elapsed":79572,"internal_node_id":"0.0-3.0-1.16"},{"rt":null,"stimulus":"<div style=\"font-size:60px;\">+</div>","key_press":null,"test_part":"fixation","trial_type":"html-keyboard-response","trial_index":37,"time_elapsed":80183,"internal_node_id":"0.0-3.0-0.17"},{"rt":898.9950000541285,"correct":false,"stimulus":"stimulus/B9.jpg","key_press":65,"total":"exp","test_part":"train","correct_response":"B","trial_type":"categorize-image","trial_index":38,"time_elapsed":83090,"internal_node_id":"0.0-3.0-1.17"},{"rt":null,"stimulus":"<div style=\"font-size:60px;\">+</div>","key_press":null,"test_part":"fixation","trial_type":"html-keyboard-response","trial_index":39,"time_elapsed":83700,"internal_node_id":"0.0-3.0-0.18"},{"rt":1683.0649999901652,"correct":false,"stimulus":"stimulus/A6.jpg","key_press":66,"total":"exp","test_part":"train","correct_response":"A","trial_type":"categorize-image","trial_index":40,"time_elapsed":87393,"internal_node_id":"0.0-3.0-1.18"},{"rt":null,"stimulus":"<div style=\"font-size:60px;\">+</div>","key_press":null,"test_part":"fixation","trial_type":"html-keyboard-response","trial_index":41,"time_elapsed":88202,"internal_node_id":"0.0-3.0-0.19"},{"rt":1146.2449999526143,"correct":true,"stimulus":"stimulus/B12.jpg","key_press":66,"total":"exp","test_part":"train","correct_response":"B","trial_type":"categorize-image","trial_index":42,"time_elapsed":91356,"internal_node_id":"0.0-3.0-1.19"},{"rt":null,"stimulus":"<div style=\"font-size:60px;\">+</div>","key_press":null,"test_part":"fixation","trial_type":"html-keyboard-response","trial_index":43,"time_elapsed":92169,"internal_node_id":"0.0-3.0-0.20"},{"rt":640.4500000644475,"correct":true,"stimulus":"stimulus/A2.jpg","key_press":65,"total":"exp","test_part":"test_seen","correct_response":"A","trial_type":"categorize-image","trial_index":44,"time_elapsed":94821,"internal_node_id":"0.0-3.0-1.20"},{"rt":null,"stimulus":"<div style=\"font-size:60px;\">+</div>","key_press":null,"test_part":"fixation","trial_type":"html-keyboard-response","trial_index":45,"time_elapsed":95623,"internal_node_id":"0.0-3.0-0.21"},{"rt":1069.9449999956414,"correct":true,"stimulus":"stimulus/A3.jpg","key_press":65,"total":"exp","test_part":"train","correct_response":"A","trial_type":"categorize-image","trial_index":46,"time_elapsed":98706,"internal_node_id":"0.0-3.0-1.21"},{"rt":null,"stimulus":"<div style=\"font-size:60px;\">+</div>","key_press":null,"test_part":"fixation","trial_type":"html-keyboard-response","trial_index":47,"time_elapsed":99316,"internal_node_id":"0.0-3.0-0.22"},{"rt":688.1199999479577,"correct":true,"stimulus":"stimulus/B14.jpg","key_press":66,"total":"exp","test_part":"test_seen","correct_response":"B","trial_type":"categorize-image","trial_index":48,"time_elapsed":102008,"internal_node_id":"0.0-3.0-1.22"},{"rt":null,"stimulus":"<div style=\"font-size:60px;\">+</div>","key_press":null,"test_part":"fixation","trial_type":"html-keyboard-response","trial_index":49,"time_elapsed":102610,"internal_node_id":"0.0-3.0-0.23"},{"rt":819.4750000257045,"correct":true,"stimulus":"stimulus/B12.jpg","key_press":66,"total":"exp","test_part":"train","correct_response":"B","trial_type":"categorize-image","trial_index":50,"time_elapsed":105434,"internal_node_id":"0.0-3.0-1.23"},{"rt":null,"stimulus":"<div style=\"font-size:60px;\">+</div>","key_press":null,"test_part":"fixation","trial_type":"html-keyboard-response","trial_index":51,"time_elapsed":106035,"internal_node_id":"0.0-3.0-0.24"},{"rt":1712.3049999354407,"correct":false,"stimulus":"stimulus/B9.jpg","key_press":65,"total":"exp","test_part":"train","correct_response":"B","trial_type":"categorize-image","trial_index":52,"time_elapsed":109751,"internal_node_id":"0.0-3.0-1.24"},{"rt":null,"stimulus":"<div style=\"font-size:60px;\">+</div>","key_press":null,"test_part":"fixation","trial_type":"html-keyboard-response","trial_index":53,"time_elapsed":110353,"internal_node_id":"0.0-3.0-0.25"},{"rt":1478.7350000115111,"correct":true,"stimulus":"stimulus/B13.jpg","key_press":66,"total":"exp","test_part":"train","correct_response":"B","trial_type":"categorize-image","trial_index":54,"time_elapsed":113836,"internal_node_id":"0.0-3.0-1.25"},{"rt":null,"stimulus":"<div style=\"font-size:60px;\">+</div>","key_press":null,"test_part":"fixation","trial_type":"html-keyboard-response","trial_index":55,"time_elapsed":114638,"internal_node_id":"0.0-3.0-0.26"},{"rt":2248.9000000059605,"correct":true,"stimulus":"stimulus/A4.jpg","key_press":65,"total":"exp","test_part":"train","correct_response":"A","trial_type":"categorize-image","trial_index":56,"time_elapsed":118891,"internal_node_id":"0.0-3.0-1.26"},{"rt":null,"stimulus":"<div style=\"font-size:60px;\">+</div>","key_press":null,"test_part":"fixation","trial_type":"html-keyboard-response","trial_index":57,"time_elapsed":119492,"internal_node_id":"0.0-3.0-0.27"},{"rt":1383.8700000196695,"correct":true,"stimulus":"stimulus/A6.jpg","key_press":65,"total":"exp","test_part":"train","correct_response":"A","trial_type":"categorize-image","trial_index":58,"time_elapsed":122880,"internal_node_id":"0.0-3.0-1.27"},{"rt":null,"stimulus":"<div style=\"font-size:60px;\">+</div>","key_press":null,"test_part":"fixation","trial_type":"html-keyboard-response","trial_index":59,"time_elapsed":123481,"internal_node_id":"0.0-3.0-0.28"},{"rt":1813.3299999171868,"correct":false,"stimulus":"stimulus/A5.jpg","key_press":66,"total":"exp","test_part":"train","correct_response":"A","trial_type":"categorize-image","trial_index":60,"time_elapsed":127309,"internal_node_id":"0.0-3.0-1.28"},{"rt":null,"stimulus":"<div style=\"font-size:60px;\">+</div>","key_press":null,"test_part":"fixation","trial_type":"html-keyboard-response","trial_index":61,"time_elapsed":127918,"internal_node_id":"0.0-3.0-0.29"},{"rt":4179.074999992736,"correct":true,"stimulus":"stimulus/B11.jpg","key_press":66,"total":"exp","test_part":"train","correct_response":"B","trial_type":"categorize-image","trial_index":62,"time_elapsed":134101,"internal_node_id":"0.0-3.0-1.29"},{"rt":null,"stimulus":"<div style=\"font-size:60px;\">+</div>","key_press":null,"test_part":"fixation","trial_type":"html-keyboard-response","trial_index":63,"time_elapsed":134703,"internal_node_id":"0.0-3.0-0.30"},{"rt":1314.200000022538,"correct":false,"stimulus":"stimulus/A6.jpg","key_press":66,"total":"exp","test_part":"train","correct_response":"A","trial_type":"categorize-image","trial_index":64,"time_elapsed":138022,"internal_node_id":"0.0-3.0-1.30"},{"rt":null,"stimulus":"<div style=\"font-size:60px;\">+</div>","key_press":null,"test_part":"fixation","trial_type":"html-keyboard-response","trial_index":65,"time_elapsed":138624,"internal_node_id":"0.0-3.0-0.31"},{"rt":2167.8700000047684,"correct":true,"stimulus":"stimulus/B12.jpg","key_press":66,"total":"exp","test_part":"train","correct_response":"B","trial_type":"categorize-image","trial_index":66,"time_elapsed":142796,"internal_node_id":"0.0-3.0-1.31"},{"rt":null,"stimulus":"<div style=\"font-size:60px;\">+</div>","key_press":null,"test_part":"fixation","trial_type":"html-keyboard-response","trial_index":67,"time_elapsed":143397,"internal_node_id":"0.0-3.0-0.32"},{"rt":865.555000025779,"correct":true,"stimulus":"stimulus/B14.jpg","key_press":66,"total":"exp","test_part":"test_seen","correct_response":"B","trial_type":"categorize-image","trial_index":68,"time_elapsed":146268,"internal_node_id":"0.0-3.0-1.32"},{"rt":null,"stimulus":"<div style=\"font-size:60px;\">+</div>","key_press":null,"test_part":"fixation","trial_type":"html-keyboard-response","trial_index":69,"time_elapsed":146874,"internal_node_id":"0.0-3.0-0.33"},{"rt":2190.100000007078,"correct":false,"stimulus":"stimulus/A5.jpg","key_press":66,"total":"exp","test_part":"train","correct_response":"A","trial_type":"categorize-image","trial_index":70,"time_elapsed":151068,"internal_node_id":"0.0-3.0-1.33"},{"rt":null,"stimulus":"<div style=\"font-size:60px;\">+</div>","key_press":null,"test_part":"fixation","trial_type":"html-keyboard-response","trial_index":71,"time_elapsed":151670,"internal_node_id":"0.0-3.0-0.34"},{"rt":1029.7400000272319,"correct":true,"stimulus":"stimulus/B13.jpg","key_press":66,"total":"exp","test_part":"train","correct_response":"B","trial_type":"categorize-image","trial_index":72,"time_elapsed":154704,"internal_node_id":"0.0-3.0-1.34"},{"rt":null,"stimulus":"<div style=\"font-size:60px;\">+</div>","key_press":null,"test_part":"fixation","trial_type":"html-keyboard-response","trial_index":73,"time_elapsed":155305,"internal_node_id":"0.0-3.0-0.35"},{"rt":1609.0250000124797,"correct":true,"stimulus":"stimulus/B11.jpg","key_press":66,"total":"exp","test_part":"train","correct_response":"B","trial_type":"categorize-image","trial_index":74,"time_elapsed":158921,"internal_node_id":"0.0-3.0-1.35"},{"rt":null,"stimulus":"<div style=\"font-size:60px;\">+</div>","key_press":null,"test_part":"fixation","trial_type":"html-keyboard-response","trial_index":75,"time_elapsed":159734,"internal_node_id":"0.0-3.0-0.36"},{"rt":652.1900000516325,"correct":true,"stimulus":"stimulus/A4.jpg","key_press":65,"total":"exp","test_part":"train","correct_response":"A","trial_type":"categorize-image","trial_index":76,"time_elapsed":162391,"internal_node_id":"0.0-3.0-1.36"},{"rt":null,"stimulus":"<div style=\"font-size:60px;\">+</div>","key_press":null,"test_part":"fixation","trial_type":"html-keyboard-response","trial_index":77,"time_elapsed":162993,"internal_node_id":"0.0-3.0-0.37"},{"rt":986.849999986589,"correct":false,"stimulus":"stimulus/A2.jpg","key_press":66,"total":"exp","test_part":"test_seen","correct_response":"A","trial_type":"categorize-image","trial_index":78,"time_elapsed":165984,"internal_node_id":"0.0-3.0-1.37"},{"rt":null,"stimulus":"<div style=\"font-size:60px;\">+</div>","key_press":null,"test_part":"fixation","trial_type":"html-keyboard-response","trial_index":79,"time_elapsed":166786,"internal_node_id":"0.0-3.0-0.38"},{"rt":3506.470000022091,"correct":true,"stimulus":"stimulus/A3.jpg","key_press":65,"total":"exp","test_part":"train","correct_response":"A","trial_type":"categorize-image","trial_index":80,"time_elapsed":172306,"internal_node_id":"0.0-3.0-1.38"},{"rt":null,"stimulus":"<div style=\"font-size:60px;\">+</div>","key_press":null,"test_part":"fixation","trial_type":"html-keyboard-response","trial_index":81,"time_elapsed":173109,"internal_node_id":"0.0-3.0-0.39"},{"rt":1427.73999995552,"correct":true,"stimulus":"stimulus/B9.jpg","key_press":66,"total":"exp","test_part":"train","correct_response":"B","trial_type":"categorize-image","trial_index":82,"time_elapsed":176541,"internal_node_id":"0.0-3.0-1.39"},{"rt":null,"stimulus":"<div style=\"font-size:60px;\">+</div>","key_press":null,"test_part":"fixation","trial_type":"html-keyboard-response","trial_index":83,"time_elapsed":177143,"internal_node_id":"0.0-3.0-0.40"},{"rt":1048.3150000218302,"correct":true,"stimulus":"stimulus/B13.jpg","key_press":66,"total":"exp","test_part":"train","correct_response":"B","trial_type":"categorize-image","trial_index":84,"time_elapsed":180194,"internal_node_id":"0.0-3.0-1.40"},{"rt":null,"stimulus":"<div style=\"font-size:60px;\">+</div>","key_press":null,"test_part":"fixation","trial_type":"html-keyboard-response","trial_index":85,"time_elapsed":180796,"internal_node_id":"0.0-3.0-0.41"},{"rt":1436.8150000227615,"correct":true,"stimulus":"stimulus/A6.jpg","key_press":65,"total":"exp","test_part":"train","correct_response":"A","trial_type":"categorize-image","trial_index":86,"time_elapsed":184235,"internal_node_id":"0.0-3.0-1.41"},{"rt":null,"stimulus":"<div style=\"font-size:60px;\">+</div>","key_press":null,"test_part":"fixation","trial_type":"html-keyboard-response","trial_index":87,"time_elapsed":185037,"internal_node_id":"0.0-3.0-0.42"},{"rt":1331.000000005588,"correct":true,"stimulus":"stimulus/B9.jpg","key_press":66,"total":"exp","test_part":"train","correct_response":"B","trial_type":"categorize-image","trial_index":88,"time_elapsed":188381,"internal_node_id":"0.0-3.0-1.42"},{"rt":null,"stimulus":"<div style=\"font-size:60px;\">+</div>","key_press":null,"test_part":"fixation","trial_type":"html-keyboard-response","trial_index":89,"time_elapsed":189183,"internal_node_id":"0.0-3.0-0.43"},{"rt":735.3749999310821,"correct":true,"stimulus":"stimulus/A5.jpg","key_press":65,"total":"exp","test_part":"train","correct_response":"A","trial_type":"categorize-image","trial_index":90,"time_elapsed":191922,"internal_node_id":"0.0-3.0-1.43"},{"rt":null,"stimulus":"<div style=\"font-size:60px;\">+</div>","key_press":null,"test_part":"fixation","trial_type":"html-keyboard-response","trial_index":91,"time_elapsed":192724,"internal_node_id":"0.0-3.0-0.44"},{"rt":606.6300000529736,"correct":false,"stimulus":"stimulus/A4.jpg","key_press":66,"total":"exp","test_part":"train","correct_response":"A","trial_type":"categorize-image","trial_index":92,"time_elapsed":195336,"internal_node_id":"0.0-3.0-1.44"},{"rt":null,"stimulus":"<div style=\"font-size:60px;\">+</div>","key_press":null,"test_part":"fixation","trial_type":"html-keyboard-response","trial_index":93,"time_elapsed":196137,"internal_node_id":"0.0-3.0-0.45"},{"rt":863.7399999424815,"correct":true,"stimulus":"stimulus/B12.jpg","key_press":66,"total":"exp","test_part":"train","correct_response":"B","trial_type":"categorize-image","trial_index":94,"time_elapsed":199005,"internal_node_id":"0.0-3.0-1.45"},{"rt":null,"stimulus":"<div style=\"font-size:60px;\">+</div>","key_press":null,"test_part":"fixation","trial_type":"html-keyboard-response","trial_index":95,"time_elapsed":199807,"internal_node_id":"0.0-3.0-0.46"},{"rt":1445.8449999801815,"correct":false,"stimulus":"stimulus/B11.jpg","key_press":65,"total":"exp","test_part":"train","correct_response":"B","trial_type":"categorize-image","trial_index":96,"time_elapsed":203256,"internal_node_id":"0.0-3.0-1.46"},{"rt":null,"stimulus":"<div style=\"font-size:60px;\">+</div>","key_press":null,"test_part":"fixation","trial_type":"html-keyboard-response","trial_index":97,"time_elapsed":203857,"internal_node_id":"0.0-3.0-0.47"},{"rt":670.7650000462309,"correct":true,"stimulus":"stimulus/A2.jpg","key_press":65,"total":"exp","test_part":"test_seen","correct_response":"A","trial_type":"categorize-image","trial_index":98,"time_elapsed":206532,"internal_node_id":"0.0-3.0-1.47"},{"rt":null,"stimulus":"<div style=\"font-size:60px;\">+</div>","key_press":null,"test_part":"fixation","trial_type":"html-keyboard-response","trial_index":99,"time_elapsed":207334,"internal_node_id":"0.0-3.0-0.48"},{"rt":2030.7599999941885,"correct":true,"stimulus":"stimulus/B14.jpg","key_press":66,"total":"exp","test_part":"test_seen","correct_response":"B","trial_type":"categorize-image","trial_index":100,"time_elapsed":211369,"internal_node_id":"0.0-3.0-1.48"},{"rt":null,"stimulus":"<div style=\"font-size:60px;\">+</div>","key_press":null,"test_part":"fixation","trial_type":"html-keyboard-response","trial_index":101,"time_elapsed":212171,"internal_node_id":"0.0-3.0-0.49"},{"rt":879.0450000669807,"correct":true,"stimulus":"stimulus/A3.jpg","key_press":65,"total":"exp","test_part":"train","correct_response":"A","trial_type":"categorize-image","trial_index":102,"time_elapsed":215054,"internal_node_id":"0.0-3.0-1.49"},{"rt":null,"stimulus":"<div style=\"font-size:60px;\">+</div>","key_press":null,"test_part":"fixation","trial_type":"html-keyboard-response","trial_index":103,"time_elapsed":215856,"internal_node_id":"0.0-3.0-0.50"},{"rt":1476.729999994859,"correct":false,"stimulus":"stimulus/A6.jpg","key_press":66,"total":"exp","test_part":"train","correct_response":"A","trial_type":"categorize-image","trial_index":104,"time_elapsed":219343,"internal_node_id":"0.0-3.0-1.50"},{"rt":null,"stimulus":"<div style=\"font-size:60px;\">+</div>","key_press":null,"test_part":"fixation","trial_type":"html-keyboard-response","trial_index":105,"time_elapsed":220158,"internal_node_id":"0.0-3.0-0.51"},{"rt":637.9899999592453,"correct":true,"stimulus":"stimulus/A2.jpg","key_press":65,"total":"exp","test_part":"test_seen","correct_response":"A","trial_type":"categorize-image","trial_index":106,"time_elapsed":222804,"internal_node_id":"0.0-3.0-1.51"},{"rt":null,"stimulus":"<div style=\"font-size:60px;\">+</div>","key_press":null,"test_part":"fixation","trial_type":"html-keyboard-response","trial_index":107,"time_elapsed":223619,"internal_node_id":"0.0-3.0-0.52"},{"rt":1247.3950000712648,"correct":true,"stimulus":"stimulus/B12.jpg","key_press":66,"total":"exp","test_part":"train","correct_response":"B","trial_type":"categorize-image","trial_index":108,"time_elapsed":226876,"internal_node_id":"0.0-3.0-1.52"},{"rt":null,"stimulus":"<div style=\"font-size:60px;\">+</div>","key_press":null,"test_part":"fixation","trial_type":"html-keyboard-response","trial_index":109,"time_elapsed":227685,"internal_node_id":"0.0-3.0-0.53"},{"rt":632.9749999567866,"correct":false,"stimulus":"stimulus/B9.jpg","key_press":65,"total":"exp","test_part":"train","correct_response":"B","trial_type":"categorize-image","trial_index":110,"time_elapsed":230324,"internal_node_id":"0.0-3.0-1.53"},{"rt":null,"stimulus":"<div style=\"font-size:60px;\">+</div>","key_press":null,"test_part":"fixation","trial_type":"html-keyboard-response","trial_index":111,"time_elapsed":231138,"internal_node_id":"0.0-3.0-0.54"},{"rt":1090.195000055246,"correct":true,"stimulus":"stimulus/A4.jpg","key_press":65,"total":"exp","test_part":"train","correct_response":"A","trial_type":"categorize-image","trial_index":112,"time_elapsed":234232,"internal_node_id":"0.0-3.0-1.54"},{"rt":null,"stimulus":"<div style=\"font-size:60px;\">+</div>","key_press":null,"test_part":"fixation","trial_type":"html-keyboard-response","trial_index":113,"time_elapsed":235034,"internal_node_id":"0.0-3.0-0.55"},{"rt":1030.1949999993667,"correct":false,"stimulus":"stimulus/B11.jpg","key_press":65,"total":"exp","test_part":"train","correct_response":"B","trial_type":"categorize-image","trial_index":114,"time_elapsed":238080,"internal_node_id":"0.0-3.0-1.55"},{"rt":null,"stimulus":"<div style=\"font-size:60px;\">+</div>","key_press":null,"test_part":"fixation","trial_type":"html-keyboard-response","trial_index":115,"time_elapsed":238683,"internal_node_id":"0.0-3.0-0.56"},{"rt":2371.4900000486523,"correct":false,"stimulus":"stimulus/A5.jpg","key_press":66,"total":"exp","test_part":"train","correct_response":"A","trial_type":"categorize-image","trial_index":116,"time_elapsed":243073,"internal_node_id":"0.0-3.0-1.56"},{"rt":null,"stimulus":"<div style=\"font-size:60px;\">+</div>","key_press":null,"test_part":"fixation","trial_type":"html-keyboard-response","trial_index":117,"time_elapsed":243887,"internal_node_id":"0.0-3.0-0.57"},{"rt":1616.6850000154227,"correct":true,"stimulus":"stimulus/A3.jpg","key_press":65,"total":"exp","test_part":"train","correct_response":"A","trial_type":"categorize-image","trial_index":118,"time_elapsed":247522,"internal_node_id":"0.0-3.0-1.57"},{"rt":null,"stimulus":"<div style=\"font-size:60px;\">+</div>","key_press":null,"test_part":"fixation","trial_type":"html-keyboard-response","trial_index":119,"time_elapsed":248137,"internal_node_id":"0.0-3.0-0.58"},{"rt":974.6399999130517,"correct":true,"stimulus":"stimulus/B13.jpg","key_press":66,"total":"exp","test_part":"train","correct_response":"B","trial_type":"categorize-image","trial_index":120,"time_elapsed":251123,"internal_node_id":"0.0-3.0-1.58"},{"rt":null,"stimulus":"<div style=\"font-size:60px;\">+</div>","key_press":null,"test_part":"fixation","trial_type":"html-keyboard-response","trial_index":121,"time_elapsed":251936,"internal_node_id":"0.0-3.0-0.59"},{"rt":809.5099999336526,"correct":true,"stimulus":"stimulus/B14.jpg","key_press":66,"total":"exp","test_part":"test_seen","correct_response":"B","trial_type":"categorize-image","trial_index":122,"time_elapsed":254749,"internal_node_id":"0.0-3.0-1.59"},{"rt":null,"stimulus":"<div style=\"font-size:60px;\">+</div>","key_press":null,"test_part":"fixation","trial_type":"html-keyboard-response","trial_index":123,"time_elapsed":255556,"internal_node_id":"0.0-3.0-0.60"},{"rt":833.8650000514463,"correct":true,"stimulus":"stimulus/B11.jpg","key_press":66,"total":"exp","test_part":"train","correct_response":"B","trial_type":"categorize-image","trial_index":124,"time_elapsed":258394,"internal_node_id":"0.0-3.0-1.60"},{"rt":null,"stimulus":"<div style=\"font-size:60px;\">+</div>","key_press":null,"test_part":"fixation","trial_type":"html-keyboard-response","trial_index":125,"time_elapsed":259196,"internal_node_id":"0.0-3.0-0.61"},{"rt":617.8000000072643,"correct":false,"stimulus":"stimulus/B9.jpg","key_press":65,"total":"exp","test_part":"train","correct_response":"B","trial_type":"categorize-image","trial_index":126,"time_elapsed":261826,"internal_node_id":"0.0-3.0-1.61"},{"rt":null,"stimulus":"<div style=\"font-size:60px;\">+</div>","key_press":null,"test_part":"fixation","trial_type":"html-keyboard-response","trial_index":127,"time_elapsed":262434,"internal_node_id":"0.0-3.0-0.62"},{"rt":1090.2899999637157,"correct":false,"stimulus":"stimulus/A4.jpg","key_press":66,"total":"exp","test_part":"train","correct_response":"A","trial_type":"categorize-image","trial_index":128,"time_elapsed":265540,"internal_node_id":"0.0-3.0-1.62"},{"rt":null,"stimulus":"<div style=\"font-size:60px;\">+</div>","key_press":null,"test_part":"fixation","trial_type":"html-keyboard-response","trial_index":129,"time_elapsed":266150,"internal_node_id":"0.0-3.0-0.63"},{"rt":1121.4800000889227,"correct":true,"stimulus":"stimulus/A2.jpg","key_press":65,"total":"exp","test_part":"test_seen","correct_response":"A","trial_type":"categorize-image","trial_index":130,"time_elapsed":269290,"internal_node_id":"0.0-3.0-1.63"},{"rt":null,"stimulus":"<div style=\"font-size:60px;\">+</div>","key_press":null,"test_part":"fixation","trial_type":"html-keyboard-response","trial_index":131,"time_elapsed":269900,"internal_node_id":"0.0-3.0-0.64"},{"rt":1321.6849999735132,"correct":true,"stimulus":"stimulus/A5.jpg","key_press":65,"total":"exp","test_part":"train","correct_response":"A","trial_type":"categorize-image","trial_index":132,"time_elapsed":273225,"internal_node_id":"0.0-3.0-1.64"},{"rt":null,"stimulus":"<div style=\"font-size:60px;\">+</div>","key_press":null,"test_part":"fixation","trial_type":"html-keyboard-response","trial_index":133,"time_elapsed":273826,"internal_node_id":"0.0-3.0-0.65"},{"rt":1423.6100000562146,"correct":true,"stimulus":"stimulus/A6.jpg","key_press":65,"total":"exp","test_part":"train","correct_response":"A","trial_type":"categorize-image","trial_index":134,"time_elapsed":277260,"internal_node_id":"0.0-3.0-1.65"},{"rt":null,"stimulus":"<div style=\"font-size:60px;\">+</div>","key_press":null,"test_part":"fixation","trial_type":"html-keyboard-response","trial_index":135,"time_elapsed":277861,"internal_node_id":"0.0-3.0-0.66"},{"rt":958.1949999555945,"correct":true,"stimulus":"stimulus/B14.jpg","key_press":66,"total":"exp","test_part":"test_seen","correct_response":"B","trial_type":"categorize-image","trial_index":136,"time_elapsed":280824,"internal_node_id":"0.0-3.0-1.66"},{"rt":null,"stimulus":"<div style=\"font-size:60px;\">+</div>","key_press":null,"test_part":"fixation","trial_type":"html-keyboard-response","trial_index":137,"time_elapsed":281637,"internal_node_id":"0.0-3.0-0.67"},{"rt":1386.9699999922886,"correct":true,"stimulus":"stimulus/B12.jpg","key_press":66,"total":"exp","test_part":"train","correct_response":"B","trial_type":"categorize-image","trial_index":138,"time_elapsed":285027,"internal_node_id":"0.0-3.0-1.67"},{"rt":null,"stimulus":"<div style=\"font-size:60px;\">+</div>","key_press":null,"test_part":"fixation","trial_type":"html-keyboard-response","trial_index":139,"time_elapsed":285630,"internal_node_id":"0.0-3.0-0.68"},{"rt":947.2049999749288,"correct":false,"stimulus":"stimulus/B13.jpg","key_press":65,"total":"exp","test_part":"train","correct_response":"B","trial_type":"categorize-image","trial_index":140,"time_elapsed":288581,"internal_node_id":"0.0-3.0-1.68"},{"rt":null,"stimulus":"<div style=\"font-size:60px;\">+</div>","key_press":null,"test_part":"fixation","trial_type":"html-keyboard-response","trial_index":141,"time_elapsed":289182,"internal_node_id":"0.0-3.0-0.69"},{"rt":614.2450000625104,"correct":true,"stimulus":"stimulus/A3.jpg","key_press":65,"total":"exp","test_part":"train","correct_response":"A","trial_type":"categorize-image","trial_index":142,"time_elapsed":291800,"internal_node_id":"0.0-3.0-1.69"},{"rt":null,"stimulus":"<div style=\"font-size:60px;\">+</div>","key_press":null,"test_part":"fixation","trial_type":"html-keyboard-response","trial_index":143,"time_elapsed":292603,"internal_node_id":"0.0-3.0-0.70"},{"rt":931.1699999962002,"correct":true,"stimulus":"stimulus/A3.jpg","key_press":65,"total":"exp","test_part":"train","correct_response":"A","trial_type":"categorize-image","trial_index":144,"time_elapsed":295551,"internal_node_id":"0.0-3.0-1.70"},{"rt":null,"stimulus":"<div style=\"font-size:60px;\">+</div>","key_press":null,"test_part":"fixation","trial_type":"html-keyboard-response","trial_index":145,"time_elapsed":296353,"internal_node_id":"0.0-3.0-0.71"},{"rt":691.5849999058992,"correct":true,"stimulus":"stimulus/B13.jpg","key_press":66,"total":"exp","test_part":"train","correct_response":"B","trial_type":"categorize-image","trial_index":146,"time_elapsed":299047,"internal_node_id":"0.0-3.0-1.71"},{"rt":null,"stimulus":"<div style=\"font-size:60px;\">+</div>","key_press":null,"test_part":"fixation","trial_type":"html-keyboard-response","trial_index":147,"time_elapsed":299848,"internal_node_id":"0.0-3.0-0.72"},{"rt":1484.1649999143556,"correct":true,"stimulus":"stimulus/B9.jpg","key_press":66,"total":"exp","test_part":"train","correct_response":"B","trial_type":"categorize-image","trial_index":148,"time_elapsed":303335,"internal_node_id":"0.0-3.0-1.72"},{"rt":null,"stimulus":"<div style=\"font-size:60px;\">+</div>","key_press":null,"test_part":"fixation","trial_type":"html-keyboard-response","trial_index":149,"time_elapsed":303936,"internal_node_id":"0.0-3.0-0.73"},{"rt":1455.0750000635162,"correct":true,"stimulus":"stimulus/B12.jpg","key_press":66,"total":"exp","test_part":"train","correct_response":"B","trial_type":"categorize-image","trial_index":150,"time_elapsed":307403,"internal_node_id":"0.0-3.0-1.73"},{"rt":null,"stimulus":"<div style=\"font-size:60px;\">+</div>","key_press":null,"test_part":"fixation","trial_type":"html-keyboard-response","trial_index":151,"time_elapsed":308205,"internal_node_id":"0.0-3.0-0.74"},{"rt":1528.8149999687448,"correct":true,"stimulus":"stimulus/B11.jpg","key_press":66,"total":"exp","test_part":"train","correct_response":"B","trial_type":"categorize-image","trial_index":152,"time_elapsed":311737,"internal_node_id":"0.0-3.0-1.74"},{"rt":null,"stimulus":"<div style=\"font-size:60px;\">+</div>","key_press":null,"test_part":"fixation","trial_type":"html-keyboard-response","trial_index":153,"time_elapsed":312340,"internal_node_id":"0.0-3.0-0.75"},{"rt":731.6249998984858,"correct":true,"stimulus":"stimulus/A2.jpg","key_press":65,"total":"exp","test_part":"test_seen","correct_response":"A","trial_type":"categorize-image","trial_index":154,"time_elapsed":315075,"internal_node_id":"0.0-3.0-1.75"},{"rt":null,"stimulus":"<div style=\"font-size:60px;\">+</div>","key_press":null,"test_part":"fixation","trial_type":"html-keyboard-response","trial_index":155,"time_elapsed":315676,"internal_node_id":"0.0-3.0-0.76"},{"rt":956.415000022389,"correct":false,"stimulus":"stimulus/A4.jpg","key_press":66,"total":"exp","test_part":"train","correct_response":"A","trial_type":"categorize-image","trial_index":156,"time_elapsed":318634,"internal_node_id":"0.0-3.0-1.76"},{"rt":null,"stimulus":"<div style=\"font-size:60px;\">+</div>","key_press":null,"test_part":"fixation","trial_type":"html-keyboard-response","trial_index":157,"time_elapsed":319235,"internal_node_id":"0.0-3.0-0.77"},{"rt":1336.5200000116602,"correct":true,"stimulus":"stimulus/A5.jpg","key_press":65,"total":"exp","test_part":"train","correct_response":"A","trial_type":"categorize-image","trial_index":158,"time_elapsed":322575,"internal_node_id":"0.0-3.0-1.77"},{"rt":null,"stimulus":"<div style=\"font-size:60px;\">+</div>","key_press":null,"test_part":"fixation","trial_type":"html-keyboard-response","trial_index":159,"time_elapsed":323376,"internal_node_id":"0.0-3.0-0.78"},{"rt":1693.764999974519,"correct":false,"stimulus":"stimulus/B14.jpg","key_press":65,"total":"exp","test_part":"test_seen","correct_response":"B","trial_type":"categorize-image","trial_index":160,"time_elapsed":327073,"internal_node_id":"0.0-3.0-1.78"},{"rt":null,"stimulus":"<div style=\"font-size:60px;\">+</div>","key_press":null,"test_part":"fixation","trial_type":"html-keyboard-response","trial_index":161,"time_elapsed":327875,"internal_node_id":"0.0-3.0-0.79"},{"rt":765.224999981001,"correct":true,"stimulus":"stimulus/A6.jpg","key_press":65,"total":"exp","test_part":"train","correct_response":"A","trial_type":"categorize-image","trial_index":162,"time_elapsed":330643,"internal_node_id":"0.0-3.0-1.79"},{"rt":null,"stimulus":"<div style=\"font-size:60px;\">+</div>","key_press":null,"test_part":"fixation","trial_type":"html-keyboard-response","trial_index":163,"time_elapsed":331445,"internal_node_id":"0.0-3.0-0.80"},{"rt":864.034999976866,"correct":true,"stimulus":"stimulus/A3.jpg","key_press":65,"total":"exp","test_part":"train","correct_response":"A","trial_type":"categorize-image","trial_index":164,"time_elapsed":334312,"internal_node_id":"0.0-3.0-1.80"},{"rt":null,"stimulus":"<div style=\"font-size:60px;\">+</div>","key_press":null,"test_part":"fixation","trial_type":"html-keyboard-response","trial_index":165,"time_elapsed":334914,"internal_node_id":"0.0-3.0-0.81"},{"rt":1140.3850000351667,"correct":false,"stimulus":"stimulus/A4.jpg","key_press":66,"total":"exp","test_part":"train","correct_response":"A","trial_type":"categorize-image","trial_index":166,"time_elapsed":338065,"internal_node_id":"0.0-3.0-1.81"},{"rt":null,"stimulus":"<div style=\"font-size:60px;\">+</div>","key_press":null,"test_part":"fixation","trial_type":"html-keyboard-response","trial_index":167,"time_elapsed":338684,"internal_node_id":"0.0-3.0-0.82"},{"rt":1191.3999998942018,"correct":true,"stimulus":"stimulus/B9.jpg","key_press":66,"total":"exp","test_part":"train","correct_response":"B","trial_type":"categorize-image","trial_index":168,"time_elapsed":341889,"internal_node_id":"0.0-3.0-1.82"},{"rt":null,"stimulus":"<div style=\"font-size:60px;\">+</div>","key_press":null,"test_part":"fixation","trial_type":"html-keyboard-response","trial_index":169,"time_elapsed":342500,"internal_node_id":"0.0-3.0-0.83"},{"rt":651.8699999433011,"correct":false,"stimulus":"stimulus/B14.jpg","key_press":65,"total":"exp","test_part":"test_seen","correct_response":"B","trial_type":"categorize-image","trial_index":170,"time_elapsed":345157,"internal_node_id":"0.0-3.0-1.83"},{"rt":null,"stimulus":"<div style=\"font-size:60px;\">+</div>","key_press":null,"test_part":"fixation","trial_type":"html-keyboard-response","trial_index":171,"time_elapsed":345767,"internal_node_id":"0.0-3.0-0.84"},{"rt":611.9649999309331,"correct":true,"stimulus":"stimulus/A5.jpg","key_press":65,"total":"exp","test_part":"train","correct_response":"A","trial_type":"categorize-image","trial_index":172,"time_elapsed":348389,"internal_node_id":"0.0-3.0-1.84"},{"rt":null,"stimulus":"<div style=\"font-size:60px;\">+</div>","key_press":null,"test_part":"fixation","trial_type":"html-keyboard-response","trial_index":173,"time_elapsed":349202,"internal_node_id":"0.0-3.0-0.85"},{"rt":1412.8950000740588,"correct":true,"stimulus":"stimulus/B12.jpg","key_press":66,"total":"exp","test_part":"train","correct_response":"B","trial_type":"categorize-image","trial_index":174,"time_elapsed":352622,"internal_node_id":"0.0-3.0-1.85"},{"rt":null,"stimulus":"<div style=\"font-size:60px;\">+</div>","key_press":null,"test_part":"fixation","trial_type":"html-keyboard-response","trial_index":175,"time_elapsed":353437,"internal_node_id":"0.0-3.0-0.86"},{"rt":689.5250000525266,"correct":false,"stimulus":"stimulus/B13.jpg","key_press":65,"total":"exp","test_part":"train","correct_response":"B","trial_type":"categorize-image","trial_index":176,"time_elapsed":356139,"internal_node_id":"0.0-3.0-1.86"},{"rt":null,"stimulus":"<div style=\"font-size:60px;\">+</div>","key_press":null,"test_part":"fixation","trial_type":"html-keyboard-response","trial_index":177,"time_elapsed":356751,"internal_node_id":"0.0-3.0-0.87"},{"rt":788.4049999993294,"correct":true,"stimulus":"stimulus/A2.jpg","key_press":65,"total":"exp","test_part":"test_seen","correct_response":"A","trial_type":"categorize-image","trial_index":178,"time_elapsed":359556,"internal_node_id":"0.0-3.0-1.87"},{"rt":null,"stimulus":"<div style=\"font-size:60px;\">+</div>","key_press":null,"test_part":"fixation","trial_type":"html-keyboard-response","trial_index":179,"time_elapsed":360167,"internal_node_id":"0.0-3.0-0.88"},{"rt":1551.1150000384077,"correct":true,"stimulus":"stimulus/B11.jpg","key_press":66,"total":"exp","test_part":"train","correct_response":"B","trial_type":"categorize-image","trial_index":180,"time_elapsed":363724,"internal_node_id":"0.0-3.0-1.88"},{"rt":null,"stimulus":"<div style=\"font-size:60px;\">+</div>","key_press":null,"test_part":"fixation","trial_type":"html-keyboard-response","trial_index":181,"time_elapsed":364526,"internal_node_id":"0.0-3.0-0.89"},{"rt":897.4850000813603,"correct":true,"stimulus":"stimulus/A6.jpg","key_press":65,"total":"exp","test_part":"train","correct_response":"A","trial_type":"categorize-image","trial_index":182,"time_elapsed":367427,"internal_node_id":"0.0-3.0-1.89"},{"rt":null,"stimulus":"<div style=\"font-size:60px;\">+</div>","key_press":null,"test_part":"fixation","trial_type":"html-keyboard-response","trial_index":183,"time_elapsed":368228,"internal_node_id":"0.0-3.0-0.90"},{"rt":904.3650000821799,"correct":false,"stimulus":"stimulus/B13.jpg","key_press":65,"total":"exp","test_part":"train","correct_response":"B","trial_type":"categorize-image","trial_index":184,"time_elapsed":371136,"internal_node_id":"0.0-3.0-1.90"},{"rt":null,"stimulus":"<div style=\"font-size:60px;\">+</div>","key_press":null,"test_part":"fixation","trial_type":"html-keyboard-response","trial_index":185,"time_elapsed":371737,"internal_node_id":"0.0-3.0-0.91"},{"rt":786.6650000214577,"correct":true,"stimulus":"stimulus/A6.jpg","key_press":65,"total":"exp","test_part":"train","correct_response":"A","trial_type":"categorize-image","trial_index":186,"time_elapsed":374527,"internal_node_id":"0.0-3.0-1.91"},{"rt":null,"stimulus":"<div style=\"font-size:60px;\">+</div>","key_press":null,"test_part":"fixation","trial_type":"html-keyboard-response","trial_index":187,"time_elapsed":375132,"internal_node_id":"0.0-3.0-0.92"},{"rt":1008.1549999304116,"correct":true,"stimulus":"stimulus/B9.jpg","key_press":66,"total":"exp","test_part":"train","correct_response":"B","trial_type":"categorize-image","trial_index":188,"time_elapsed":378157,"internal_node_id":"0.0-3.0-1.92"},{"rt":null,"stimulus":"<div style=\"font-size:60px;\">+</div>","key_press":null,"test_part":"fixation","trial_type":"html-keyboard-response","trial_index":189,"time_elapsed":378767,"internal_node_id":"0.0-3.0-0.93"},{"rt":1007.2250000666827,"correct":false,"stimulus":"stimulus/A5.jpg","key_press":66,"total":"exp","test_part":"train","correct_response":"A","trial_type":"categorize-image","trial_index":190,"time_elapsed":381789,"internal_node_id":"0.0-3.0-1.93"},{"rt":null,"stimulus":"<div style=\"font-size:60px;\">+</div>","key_press":null,"test_part":"fixation","trial_type":"html-keyboard-response","trial_index":191,"time_elapsed":382399,"internal_node_id":"0.0-3.0-0.94"},{"rt":979.6949999872595,"correct":true,"stimulus":"stimulus/A4.jpg","key_press":65,"total":"exp","test_part":"train","correct_response":"A","trial_type":"categorize-image","trial_index":192,"time_elapsed":385389,"internal_node_id":"0.0-3.0-1.94"},{"rt":null,"stimulus":"<div style=\"font-size:60px;\">+</div>","key_press":null,"test_part":"fixation","trial_type":"html-keyboard-response","trial_index":193,"time_elapsed":386000,"internal_node_id":"0.0-3.0-0.95"},{"rt":1158.9800000656396,"correct":true,"stimulus":"stimulus/B11.jpg","key_press":66,"total":"exp","test_part":"train","correct_response":"B","trial_type":"categorize-image","trial_index":194,"time_elapsed":389173,"internal_node_id":"0.0-3.0-1.95"},{"rt":null,"stimulus":"<div style=\"font-size:60px;\">+</div>","key_press":null,"test_part":"fixation","trial_type":"html-keyboard-response","trial_index":195,"time_elapsed":389783,"internal_node_id":"0.0-3.0-0.96"},{"rt":844.8850000277162,"correct":true,"stimulus":"stimulus/B12.jpg","key_press":66,"total":"exp","test_part":"train","correct_response":"B","trial_type":"categorize-image","trial_index":196,"time_elapsed":392639,"internal_node_id":"0.0-3.0-1.96"},{"rt":null,"stimulus":"<div style=\"font-size:60px;\">+</div>","key_press":null,"test_part":"fixation","trial_type":"html-keyboard-response","trial_index":197,"time_elapsed":393250,"internal_node_id":"0.0-3.0-0.97"},{"rt":903.0400000046939,"correct":true,"stimulus":"stimulus/B14.jpg","key_press":66,"total":"exp","test_part":"test_seen","correct_response":"B","trial_type":"categorize-image","trial_index":198,"time_elapsed":396157,"internal_node_id":"0.0-3.0-1.97"},{"rt":null,"stimulus":"<div style=\"font-size:60px;\">+</div>","key_press":null,"test_part":"fixation","trial_type":"html-keyboard-response","trial_index":199,"time_elapsed":396971,"internal_node_id":"0.0-3.0-0.98"},{"rt":688.7300000526011,"correct":true,"stimulus":"stimulus/A2.jpg","key_press":65,"total":"exp","test_part":"test_seen","correct_response":"A","trial_type":"categorize-image","trial_index":200,"time_elapsed":399673,"internal_node_id":"0.0-3.0-1.98"},{"rt":null,"stimulus":"<div style=\"font-size:60px;\">+</div>","key_press":null,"test_part":"fixation","trial_type":"html-keyboard-response","trial_index":201,"time_elapsed":400486,"internal_node_id":"0.0-3.0-0.99"},{"rt":910.5799999088049,"correct":true,"stimulus":"stimulus/A3.jpg","key_press":65,"total":"exp","test_part":"train","correct_response":"A","trial_type":"categorize-image","trial_index":202,"time_elapsed":403407,"internal_node_id":"0.0-3.0-1.99"},{"rt":null,"stimulus":"<div style=\"font-size:60px;\">+</div>","key_press":null,"test_part":"fixation","trial_type":"html-keyboard-response","trial_index":203,"time_elapsed":404219,"internal_node_id":"0.0-3.0-0.100"},{"rt":1065.7699999865144,"correct":false,"stimulus":"stimulus/B12.jpg","key_press":65,"total":"exp","test_part":"train","correct_response":"B","trial_type":"categorize-image","trial_index":204,"time_elapsed":407288,"internal_node_id":"0.0-3.0-1.100"},{"rt":null,"stimulus":"<div style=\"font-size:60px;\">+</div>","key_press":null,"test_part":"fixation","trial_type":"html-keyboard-response","trial_index":205,"time_elapsed":407889,"internal_node_id":"0.0-3.0-0.101"},{"rt":1840.3450000332668,"correct":true,"stimulus":"stimulus/B14.jpg","key_press":66,"total":"exp","test_part":"test_seen","correct_response":"B","trial_type":"categorize-image","trial_index":206,"time_elapsed":411732,"internal_node_id":"0.0-3.0-1.101"},{"rt":null,"stimulus":"<div style=\"font-size:60px;\">+</div>","key_press":null,"test_part":"fixation","trial_type":"html-keyboard-response","trial_index":207,"time_elapsed":412534,"internal_node_id":"0.0-3.0-0.102"},{"rt":899.2149999830872,"correct":true,"stimulus":"stimulus/A3.jpg","key_press":65,"total":"exp","test_part":"train","correct_response":"A","trial_type":"categorize-image","trial_index":208,"time_elapsed":415437,"internal_node_id":"0.0-3.0-1.102"},{"rt":null,"stimulus":"<div style=\"font-size:60px;\">+</div>","key_press":null,"test_part":"fixation","trial_type":"html-keyboard-response","trial_index":209,"time_elapsed":416238,"internal_node_id":"0.0-3.0-0.103"},{"rt":1067.9399999789894,"correct":false,"stimulus":"stimulus/A4.jpg","key_press":66,"total":"exp","test_part":"train","correct_response":"A","trial_type":"categorize-image","trial_index":210,"time_elapsed":419309,"internal_node_id":"0.0-3.0-1.103"},{"rt":null,"stimulus":"<div style=\"font-size:60px;\">+</div>","key_press":null,"test_part":"fixation","trial_type":"html-keyboard-response","trial_index":211,"time_elapsed":419910,"internal_node_id":"0.0-3.0-0.104"},{"rt":1738.1450000684708,"correct":true,"stimulus":"stimulus/A2.jpg","key_press":65,"total":"exp","test_part":"test_seen","correct_response":"A","trial_type":"categorize-image","trial_index":212,"time_elapsed":423651,"internal_node_id":"0.0-3.0-1.104"},{"rt":null,"stimulus":"<div style=\"font-size:60px;\">+</div>","key_press":null,"test_part":"fixation","trial_type":"html-keyboard-response","trial_index":213,"time_elapsed":424253,"internal_node_id":"0.0-3.0-0.105"},{"rt":856.3200000207871,"correct":true,"stimulus":"stimulus/B11.jpg","key_press":66,"total":"exp","test_part":"train","correct_response":"B","trial_type":"categorize-image","trial_index":214,"time_elapsed":427113,"internal_node_id":"0.0-3.0-1.105"},{"rt":null,"stimulus":"<div style=\"font-size:60px;\">+</div>","key_press":null,"test_part":"fixation","trial_type":"html-keyboard-response","trial_index":215,"time_elapsed":427914,"internal_node_id":"0.0-3.0-0.106"},{"rt":1026.1199999367818,"correct":false,"stimulus":"stimulus/B13.jpg","key_press":65,"total":"exp","test_part":"train","correct_response":"B","trial_type":"categorize-image","trial_index":216,"time_elapsed":430943,"internal_node_id":"0.0-3.0-1.106"},{"rt":null,"stimulus":"<div style=\"font-size:60px;\">+</div>","key_press":null,"test_part":"fixation","trial_type":"html-keyboard-response","trial_index":217,"time_elapsed":431544,"internal_node_id":"0.0-3.0-0.107"},{"rt":916.495000012219,"correct":true,"stimulus":"stimulus/B9.jpg","key_press":66,"total":"exp","test_part":"train","correct_response":"B","trial_type":"categorize-image","trial_index":218,"time_elapsed":434464,"internal_node_id":"0.0-3.0-1.107"},{"rt":null,"stimulus":"<div style=\"font-size:60px;\">+</div>","key_press":null,"test_part":"fixation","trial_type":"html-keyboard-response","trial_index":219,"time_elapsed":435264,"internal_node_id":"0.0-3.0-0.108"},{"rt":772.9050000198185,"correct":true,"stimulus":"stimulus/A6.jpg","key_press":65,"total":"exp","test_part":"train","correct_response":"A","trial_type":"categorize-image","trial_index":220,"time_elapsed":438046,"internal_node_id":"0.0-3.0-1.108"},{"rt":null,"stimulus":"<div style=\"font-size:60px;\">+</div>","key_press":null,"test_part":"fixation","trial_type":"html-keyboard-response","trial_index":221,"time_elapsed":438847,"internal_node_id":"0.0-3.0-0.109"},{"rt":1468.9900000812486,"correct":true,"stimulus":"stimulus/A5.jpg","key_press":65,"total":"exp","test_part":"train","correct_response":"A","trial_type":"categorize-image","trial_index":222,"time_elapsed":442320,"internal_node_id":"0.0-3.0-1.109"},{"rt":null,"stimulus":"<div style=\"font-size:60px;\">+</div>","key_press":null,"test_part":"fixation","trial_type":"html-keyboard-response","trial_index":223,"time_elapsed":443121,"internal_node_id":"0.0-3.0-0.110"},{"rt":856.4300000434741,"correct":true,"stimulus":"stimulus/B13.jpg","key_press":66,"total":"exp","test_part":"train","correct_response":"B","trial_type":"categorize-image","trial_index":224,"time_elapsed":445980,"internal_node_id":"0.0-3.0-1.110"},{"rt":null,"stimulus":"<div style=\"font-size:60px;\">+</div>","key_press":null,"test_part":"fixation","trial_type":"html-keyboard-response","trial_index":225,"time_elapsed":446781,"internal_node_id":"0.0-3.0-0.111"},{"rt":1123.3350000111386,"correct":true,"stimulus":"stimulus/B9.jpg","key_press":66,"total":"exp","test_part":"train","correct_response":"B","trial_type":"categorize-image","trial_index":226,"time_elapsed":449909,"internal_node_id":"0.0-3.0-1.111"},{"rt":null,"stimulus":"<div style=\"font-size:60px;\">+</div>","key_press":null,"test_part":"fixation","trial_type":"html-keyboard-response","trial_index":227,"time_elapsed":450510,"internal_node_id":"0.0-3.0-0.112"},{"rt":881.6599999554455,"correct":false,"stimulus":"stimulus/B11.jpg","key_press":65,"total":"exp","test_part":"train","correct_response":"B","trial_type":"categorize-image","trial_index":228,"time_elapsed":453394,"internal_node_id":"0.0-3.0-1.112"},{"rt":null,"stimulus":"<div style=\"font-size:60px;\">+</div>","key_press":null,"test_part":"fixation","trial_type":"html-keyboard-response","trial_index":229,"time_elapsed":454195,"internal_node_id":"0.0-3.0-0.113"},{"rt":573.4900000970811,"correct":true,"stimulus":"stimulus/A6.jpg","key_press":65,"total":"exp","test_part":"train","correct_response":"A","trial_type":"categorize-image","trial_index":230,"time_elapsed":456772,"internal_node_id":"0.0-3.0-1.113"},{"rt":null,"stimulus":"<div style=\"font-size:60px;\">+</div>","key_press":null,"test_part":"fixation","trial_type":"html-keyboard-response","trial_index":231,"time_elapsed":457575,"internal_node_id":"0.0-3.0-0.114"},{"rt":1138.8699999079108,"correct":true,"stimulus":"stimulus/B12.jpg","key_press":66,"total":"exp","test_part":"train","correct_response":"B","trial_type":"categorize-image","trial_index":232,"time_elapsed":460716,"internal_node_id":"0.0-3.0-1.114"},{"rt":null,"stimulus":"<div style=\"font-size:60px;\">+</div>","key_press":null,"test_part":"fixation","trial_type":"html-keyboard-response","trial_index":233,"time_elapsed":461318,"internal_node_id":"0.0-3.0-0.115"},{"rt":1292.105000000447,"correct":true,"stimulus":"stimulus/B14.jpg","key_press":66,"total":"exp","test_part":"test_seen","correct_response":"B","trial_type":"categorize-image","trial_index":234,"time_elapsed":464615,"internal_node_id":"0.0-3.0-1.115"},{"rt":null,"stimulus":"<div style=\"font-size:60px;\">+</div>","key_press":null,"test_part":"fixation","trial_type":"html-keyboard-response","trial_index":235,"time_elapsed":465420,"internal_node_id":"0.0-3.0-0.116"},{"rt":994.6299999719486,"correct":false,"stimulus":"stimulus/A5.jpg","key_press":66,"total":"exp","test_part":"train","correct_response":"A","trial_type":"categorize-image","trial_index":236,"time_elapsed":468423,"internal_node_id":"0.0-3.0-1.116"},{"rt":null,"stimulus":"<div style=\"font-size:60px;\">+</div>","key_press":null,"test_part":"fixation","trial_type":"html-keyboard-response","trial_index":237,"time_elapsed":469033,"internal_node_id":"0.0-3.0-0.117"},{"rt":967.475000070408,"correct":false,"stimulus":"stimulus/A3.jpg","key_press":66,"total":"exp","test_part":"train","correct_response":"A","trial_type":"categorize-image","trial_index":238,"time_elapsed":472004,"internal_node_id":"0.0-3.0-1.117"},{"rt":null,"stimulus":"<div style=\"font-size:60px;\">+</div>","key_press":null,"test_part":"fixation","trial_type":"html-keyboard-response","trial_index":239,"time_elapsed":472606,"internal_node_id":"0.0-3.0-0.118"},{"rt":1753.6700000055134,"correct":false,"stimulus":"stimulus/A4.jpg","key_press":66,"total":"exp","test_part":"train","correct_response":"A","trial_type":"categorize-image","trial_index":240,"time_elapsed":476362,"internal_node_id":"0.0-3.0-1.118"},{"rt":null,"stimulus":"<div style=\"font-size:60px;\">+</div>","key_press":null,"test_part":"fixation","trial_type":"html-keyboard-response","trial_index":241,"time_elapsed":477164,"internal_node_id":"0.0-3.0-0.119"},{"rt":909.8749998956919,"correct":true,"stimulus":"stimulus/A2.jpg","key_press":65,"total":"exp","test_part":"test_seen","correct_response":"A","trial_type":"categorize-image","trial_index":242,"time_elapsed":480090,"internal_node_id":"0.0-3.0-1.119"},{"rt":null,"stimulus":"<div style=\"font-size:60px;\">+</div>","key_press":null,"test_part":"fixation","trial_type":"html-keyboard-response","trial_index":243,"time_elapsed":480904,"internal_node_id":"0.0-3.0-0.120"},{"rt":917.7800000179559,"correct":false,"stimulus":"stimulus/A4.jpg","key_press":66,"total":"exp","test_part":"train","correct_response":"A","trial_type":"categorize-image","trial_index":244,"time_elapsed":483824,"internal_node_id":"0.0-3.0-1.120"},{"rt":null,"stimulus":"<div style=\"font-size:60px;\">+</div>","key_press":null,"test_part":"fixation","trial_type":"html-keyboard-response","trial_index":245,"time_elapsed":484434,"internal_node_id":"0.0-3.0-0.121"},{"rt":2144.674999988638,"correct":true,"stimulus":"stimulus/B11.jpg","key_press":66,"total":"exp","test_part":"train","correct_response":"B","trial_type":"categorize-image","trial_index":246,"time_elapsed":488589,"internal_node_id":"0.0-3.0-1.121"},{"rt":null,"stimulus":"<div style=\"font-size:60px;\">+</div>","key_press":null,"test_part":"fixation","trial_type":"html-keyboard-response","trial_index":247,"time_elapsed":489201,"internal_node_id":"0.0-3.0-0.122"},{"rt":710.0900000659749,"correct":true,"stimulus":"stimulus/A2.jpg","key_press":65,"total":"exp","test_part":"test_seen","correct_response":"A","trial_type":"categorize-image","trial_index":248,"time_elapsed":491923,"internal_node_id":"0.0-3.0-1.122"},{"rt":null,"stimulus":"<div style=\"font-size:60px;\">+</div>","key_press":null,"test_part":"fixation","trial_type":"html-keyboard-response","trial_index":249,"time_elapsed":492534,"internal_node_id":"0.0-3.0-0.123"},{"rt":968.070000060834,"correct":true,"stimulus":"stimulus/A6.jpg","key_press":65,"total":"exp","test_part":"train","correct_response":"A","trial_type":"categorize-image","trial_index":250,"time_elapsed":495505,"internal_node_id":"0.0-3.0-1.123"},{"rt":null,"stimulus":"<div style=\"font-size:60px;\">+</div>","key_press":null,"test_part":"fixation","trial_type":"html-keyboard-response","trial_index":251,"time_elapsed":496106,"internal_node_id":"0.0-3.0-0.124"},{"rt":1307.0950000546873,"correct":false,"stimulus":"stimulus/B13.jpg","key_press":65,"total":"exp","test_part":"train","correct_response":"B","trial_type":"categorize-image","trial_index":252,"time_elapsed":499416,"internal_node_id":"0.0-3.0-1.124"},{"rt":null,"stimulus":"<div style=\"font-size:60px;\">+</div>","key_press":null,"test_part":"fixation","trial_type":"html-keyboard-response","trial_index":253,"time_elapsed":500017,"internal_node_id":"0.0-3.0-0.125"},{"rt":919.3300000624731,"correct":true,"stimulus":"stimulus/B9.jpg","key_press":66,"total":"exp","test_part":"train","correct_response":"B","trial_type":"categorize-image","trial_index":254,"time_elapsed":502940,"internal_node_id":"0.0-3.0-1.125"},{"rt":null,"stimulus":"<div style=\"font-size:60px;\">+</div>","key_press":null,"test_part":"fixation","trial_type":"html-keyboard-response","trial_index":255,"time_elapsed":503542,"internal_node_id":"0.0-3.0-0.126"},{"rt":765.3850000351667,"correct":true,"stimulus":"stimulus/A3.jpg","key_press":65,"total":"exp","test_part":"train","correct_response":"A","trial_type":"categorize-image","trial_index":256,"time_elapsed":506310,"internal_node_id":"0.0-3.0-1.126"},{"rt":null,"stimulus":"<div style=\"font-size:60px;\">+</div>","key_press":null,"test_part":"fixation","trial_type":"html-keyboard-response","trial_index":257,"time_elapsed":507111,"internal_node_id":"0.0-3.0-0.127"},{"rt":929.4799999333918,"correct":true,"stimulus":"stimulus/B14.jpg","key_press":66,"total":"exp","test_part":"test_seen","correct_response":"B","trial_type":"categorize-image","trial_index":258,"time_elapsed":510043,"internal_node_id":"0.0-3.0-1.127"},{"rt":null,"stimulus":"<div style=\"font-size:60px;\">+</div>","key_press":null,"test_part":"fixation","trial_type":"html-keyboard-response","trial_index":259,"time_elapsed":510645,"internal_node_id":"0.0-3.0-0.128"},{"rt":880.3400000324473,"correct":true,"stimulus":"stimulus/B12.jpg","key_press":66,"total":"exp","test_part":"train","correct_response":"B","trial_type":"categorize-image","trial_index":260,"time_elapsed":513529,"internal_node_id":"0.0-3.0-1.128"},{"rt":null,"stimulus":"<div style=\"font-size:60px;\">+</div>","key_press":null,"test_part":"fixation","trial_type":"html-keyboard-response","trial_index":261,"time_elapsed":514131,"internal_node_id":"0.0-3.0-0.129"},{"rt":1126.3350000372157,"correct":true,"stimulus":"stimulus/A5.jpg","key_press":65,"total":"exp","test_part":"train","correct_response":"A","trial_type":"categorize-image","trial_index":262,"time_elapsed":517260,"internal_node_id":"0.0-3.0-1.129"},{"rt":null,"stimulus":"<div style=\"font-size:60px;\">+</div>","key_press":null,"test_part":"fixation","trial_type":"html-keyboard-response","trial_index":263,"time_elapsed":518064,"internal_node_id":"0.0-3.0-0.130"},{"rt":1798.6950000049546,"correct":true,"stimulus":"stimulus/A4.jpg","key_press":65,"total":"exp","test_part":"train","correct_response":"A","trial_type":"categorize-image","trial_index":264,"time_elapsed":521866,"internal_node_id":"0.0-3.0-1.130"},{"rt":null,"stimulus":"<div style=\"font-size:60px;\">+</div>","key_press":null,"test_part":"fixation","trial_type":"html-keyboard-response","trial_index":265,"time_elapsed":522667,"internal_node_id":"0.0-3.0-0.131"},{"rt":1689.4049999536946,"correct":true,"stimulus":"stimulus/B13.jpg","key_press":66,"total":"exp","test_part":"train","correct_response":"B","trial_type":"categorize-image","trial_index":266,"time_elapsed":526373,"internal_node_id":"0.0-3.0-1.131"},{"rt":null,"stimulus":"<div style=\"font-size:60px;\">+</div>","key_press":null,"test_part":"fixation","trial_type":"html-keyboard-response","trial_index":267,"time_elapsed":526984,"internal_node_id":"0.0-3.0-0.132"},{"rt":1069.5400000549853,"correct":true,"stimulus":"stimulus/B9.jpg","key_press":66,"total":"exp","test_part":"train","correct_response":"B","trial_type":"categorize-image","trial_index":268,"time_elapsed":530058,"internal_node_id":"0.0-3.0-1.132"},{"rt":null,"stimulus":"<div style=\"font-size:60px;\">+</div>","key_press":null,"test_part":"fixation","trial_type":"html-keyboard-response","trial_index":269,"time_elapsed":530858,"internal_node_id":"0.0-3.0-0.133"},{"rt":979.7450000187382,"correct":true,"stimulus":"stimulus/A6.jpg","key_press":65,"total":"exp","test_part":"train","correct_response":"A","trial_type":"categorize-image","trial_index":270,"time_elapsed":533842,"internal_node_id":"0.0-3.0-1.133"},{"rt":null,"stimulus":"<div style=\"font-size:60px;\">+</div>","key_press":null,"test_part":"fixation","trial_type":"html-keyboard-response","trial_index":271,"time_elapsed":534443,"internal_node_id":"0.0-3.0-0.134"},{"rt":1572.2250000108033,"correct":true,"stimulus":"stimulus/A3.jpg","key_press":65,"total":"exp","test_part":"train","correct_response":"A","trial_type":"categorize-image","trial_index":272,"time_elapsed":538018,"internal_node_id":"0.0-3.0-1.134"},{"rt":null,"stimulus":"<div style=\"font-size:60px;\">+</div>","key_press":null,"test_part":"fixation","trial_type":"html-keyboard-response","trial_index":273,"time_elapsed":538819,"internal_node_id":"0.0-3.0-0.135"},{"rt":747.2899999702349,"correct":true,"stimulus":"stimulus/A2.jpg","key_press":65,"total":"exp","test_part":"test_seen","correct_response":"A","trial_type":"categorize-image","trial_index":274,"time_elapsed":541569,"internal_node_id":"0.0-3.0-1.135"},{"rt":null,"stimulus":"<div style=\"font-size:60px;\">+</div>","key_press":null,"test_part":"fixation","trial_type":"html-keyboard-response","trial_index":275,"time_elapsed":542170,"internal_node_id":"0.0-3.0-0.136"},{"rt":946.4050000533462,"correct":true,"stimulus":"stimulus/B11.jpg","key_press":66,"total":"exp","test_part":"train","correct_response":"B","trial_type":"categorize-image","trial_index":276,"time_elapsed":545119,"internal_node_id":"0.0-3.0-1.136"},{"rt":null,"stimulus":"<div style=\"font-size:60px;\">+</div>","key_press":null,"test_part":"fixation","trial_type":"html-keyboard-response","trial_index":277,"time_elapsed":545721,"internal_node_id":"0.0-3.0-0.137"},{"rt":1713.6699999682605,"correct":true,"stimulus":"stimulus/B14.jpg","key_press":66,"total":"exp","test_part":"test_seen","correct_response":"B","trial_type":"categorize-image","trial_index":278,"time_elapsed":549438,"internal_node_id":"0.0-3.0-1.137"},{"rt":null,"stimulus":"<div style=\"font-size:60px;\">+</div>","key_press":null,"test_part":"fixation","trial_type":"html-keyboard-response","trial_index":279,"time_elapsed":550040,"internal_node_id":"0.0-3.0-0.138"},{"rt":875.8450000314042,"correct":true,"stimulus":"stimulus/B12.jpg","key_press":66,"total":"exp","test_part":"train","correct_response":"B","trial_type":"categorize-image","trial_index":280,"time_elapsed":552919,"internal_node_id":"0.0-3.0-1.138"},{"rt":null,"stimulus":"<div style=\"font-size:60px;\">+</div>","key_press":null,"test_part":"fixation","trial_type":"html-keyboard-response","trial_index":281,"time_elapsed":553520,"internal_node_id":"0.0-3.0-0.139"},{"rt":881.5999999642372,"correct":true,"stimulus":"stimulus/A5.jpg","key_press":65,"total":"exp","test_part":"train","correct_response":"A","trial_type":"categorize-image","trial_index":282,"time_elapsed":556404,"internal_node_id":"0.0-3.0-1.139"},{"rt":null,"stimulus":"<div style=\"font-size:60px;\">+</div>","key_press":null,"test_part":"fixation","trial_type":"html-keyboard-response","trial_index":283,"time_elapsed":557206,"internal_node_id":"0.0-3.0-0.140"},{"rt":874.7699999948964,"correct":true,"stimulus":"stimulus/B12.jpg","key_press":66,"total":"exp","test_part":"train","correct_response":"B","trial_type":"categorize-image","trial_index":284,"time_elapsed":560084,"internal_node_id":"0.0-3.0-1.140"},{"rt":null,"stimulus":"<div style=\"font-size:60px;\">+</div>","key_press":null,"test_part":"fixation","trial_type":"html-keyboard-response","trial_index":285,"time_elapsed":560889,"internal_node_id":"0.0-3.0-0.141"},{"rt":930.1650000270456,"correct":true,"stimulus":"stimulus/B9.jpg","key_press":66,"total":"exp","test_part":"train","correct_response":"B","trial_type":"categorize-image","trial_index":286,"time_elapsed":563825,"internal_node_id":"0.0-3.0-1.141"},{"rt":null,"stimulus":"<div style=\"font-size:60px;\">+</div>","key_press":null,"test_part":"fixation","trial_type":"html-keyboard-response","trial_index":287,"time_elapsed":564638,"internal_node_id":"0.0-3.0-0.142"},{"rt":612.9650000948459,"correct":true,"stimulus":"stimulus/A5.jpg","key_press":65,"total":"exp","test_part":"train","correct_response":"A","trial_type":"categorize-image","trial_index":288,"time_elapsed":567254,"internal_node_id":"0.0-3.0-1.142"},{"rt":null,"stimulus":"<div style=\"font-size:60px;\">+</div>","key_press":null,"test_part":"fixation","trial_type":"html-keyboard-response","trial_index":289,"time_elapsed":567854,"internal_node_id":"0.0-3.0-0.143"},{"rt":791.1399999866262,"correct":true,"stimulus":"stimulus/B14.jpg","key_press":66,"total":"exp","test_part":"test_seen","correct_response":"B","trial_type":"categorize-image","trial_index":290,"time_elapsed":570649,"internal_node_id":"0.0-3.0-1.143"},{"rt":null,"stimulus":"<div style=\"font-size:60px;\">+</div>","key_press":null,"test_part":"fixation","trial_type":"html-keyboard-response","trial_index":291,"time_elapsed":571250,"internal_node_id":"0.0-3.0-0.144"},{"rt":959.900000016205,"correct":true,"stimulus":"stimulus/B11.jpg","key_press":66,"total":"exp","test_part":"train","correct_response":"B","trial_type":"categorize-image","trial_index":292,"time_elapsed":574212,"internal_node_id":"0.0-3.0-1.144"},{"rt":null,"stimulus":"<div style=\"font-size:60px;\">+</div>","key_press":null,"test_part":"fixation","trial_type":"html-keyboard-response","trial_index":293,"time_elapsed":575013,"internal_node_id":"0.0-3.0-0.145"},{"rt":870.4900000011548,"correct":true,"stimulus":"stimulus/A3.jpg","key_press":65,"total":"exp","test_part":"train","correct_response":"A","trial_type":"categorize-image","trial_index":294,"time_elapsed":577887,"internal_node_id":"0.0-3.0-1.145"},{"rt":null,"stimulus":"<div style=\"font-size:60px;\">+</div>","key_press":null,"test_part":"fixation","trial_type":"html-keyboard-response","trial_index":295,"time_elapsed":578688,"internal_node_id":"0.0-3.0-0.146"},{"rt":522.9000000981614,"correct":true,"stimulus":"stimulus/A6.jpg","key_press":65,"total":"exp","test_part":"train","correct_response":"A","trial_type":"categorize-image","trial_index":296,"time_elapsed":581214,"internal_node_id":"0.0-3.0-1.146"},{"rt":null,"stimulus":"<div style=\"font-size:60px;\">+</div>","key_press":null,"test_part":"fixation","trial_type":"html-keyboard-response","trial_index":297,"time_elapsed":582015,"internal_node_id":"0.0-3.0-0.147"},{"rt":1496.6600000625476,"correct":true,"stimulus":"stimulus/A4.jpg","key_press":65,"total":"exp","test_part":"train","correct_response":"A","trial_type":"categorize-image","trial_index":298,"time_elapsed":585521,"internal_node_id":"0.0-3.0-1.147"},{"rt":null,"stimulus":"<div style=\"font-size:60px;\">+</div>","key_press":null,"test_part":"fixation","trial_type":"html-keyboard-response","trial_index":299,"time_elapsed":586337,"internal_node_id":"0.0-3.0-0.148"},{"rt":832.8550000442192,"correct":false,"stimulus":"stimulus/B13.jpg","key_press":65,"total":"exp","test_part":"train","correct_response":"B","trial_type":"categorize-image","trial_index":300,"time_elapsed":589175,"internal_node_id":"0.0-3.0-1.148"},{"rt":null,"stimulus":"<div style=\"font-size:60px;\">+</div>","key_press":null,"test_part":"fixation","trial_type":"html-keyboard-response","trial_index":301,"time_elapsed":589785,"internal_node_id":"0.0-3.0-0.149"},{"rt":610.2049999171868,"correct":true,"stimulus":"stimulus/A2.jpg","key_press":65,"total":"exp","test_part":"test_seen","correct_response":"A","trial_type":"categorize-image","trial_index":302,"time_elapsed":592407,"internal_node_id":"0.0-3.0-1.149"},{"rt":null,"stimulus":"<div style=\"font-size:60px;\">+</div>","key_press":null,"test_part":"fixation","trial_type":"html-keyboard-response","trial_index":303,"time_elapsed":593018,"internal_node_id":"0.0-3.0-0.150"},{"rt":634.9900000495836,"correct":true,"stimulus":"stimulus/A2.jpg","key_press":65,"total":"exp","test_part":"test_seen","correct_response":"A","trial_type":"categorize-image","trial_index":304,"time_elapsed":595658,"internal_node_id":"0.0-3.0-1.150"},{"rt":null,"stimulus":"<div style=\"font-size:60px;\">+</div>","key_press":null,"test_part":"fixation","trial_type":"html-keyboard-response","trial_index":305,"time_elapsed":596470,"internal_node_id":"0.0-3.0-0.151"},{"rt":977.4000000907108,"correct":true,"stimulus":"stimulus/B14.jpg","key_press":66,"total":"exp","test_part":"test_seen","correct_response":"B","trial_type":"categorize-image","trial_index":306,"time_elapsed":599455,"internal_node_id":"0.0-3.0-1.151"},{"rt":null,"stimulus":"<div style=\"font-size:60px;\">+</div>","key_press":null,"test_part":"fixation","trial_type":"html-keyboard-response","trial_index":307,"time_elapsed":600270,"internal_node_id":"0.0-3.0-0.152"},{"rt":598.145000054501,"correct":true,"stimulus":"stimulus/A3.jpg","key_press":65,"total":"exp","test_part":"train","correct_response":"A","trial_type":"categorize-image","trial_index":308,"time_elapsed":602875,"internal_node_id":"0.0-3.0-1.152"},{"rt":null,"stimulus":"<div style=\"font-size:60px;\">+</div>","key_press":null,"test_part":"fixation","trial_type":"html-keyboard-response","trial_index":309,"time_elapsed":603484,"internal_node_id":"0.0-3.0-0.153"},{"rt":781.2599999597296,"correct":true,"stimulus":"stimulus/B11.jpg","key_press":66,"total":"exp","test_part":"train","correct_response":"B","trial_type":"categorize-image","trial_index":310,"time_elapsed":606277,"internal_node_id":"0.0-3.0-1.153"},{"rt":null,"stimulus":"<div style=\"font-size:60px;\">+</div>","key_press":null,"test_part":"fixation","trial_type":"html-keyboard-response","trial_index":311,"time_elapsed":606884,"internal_node_id":"0.0-3.0-0.154"},{"rt":736.2349999602884,"correct":true,"stimulus":"stimulus/A5.jpg","key_press":65,"total":"exp","test_part":"train","correct_response":"A","trial_type":"categorize-image","trial_index":312,"time_elapsed":609639,"internal_node_id":"0.0-3.0-1.154"},{"rt":null,"stimulus":"<div style=\"font-size:60px;\">+</div>","key_press":null,"test_part":"fixation","trial_type":"html-keyboard-response","trial_index":313,"time_elapsed":610251,"internal_node_id":"0.0-3.0-0.155"},{"rt":861.9200000539422,"correct":true,"stimulus":"stimulus/B12.jpg","key_press":66,"total":"exp","test_part":"train","correct_response":"B","trial_type":"categorize-image","trial_index":314,"time_elapsed":613125,"internal_node_id":"0.0-3.0-1.155"},{"rt":null,"stimulus":"<div style=\"font-size:60px;\">+</div>","key_press":null,"test_part":"fixation","trial_type":"html-keyboard-response","trial_index":315,"time_elapsed":613734,"internal_node_id":"0.0-3.0-0.156"},{"rt":849.0600000368431,"correct":false,"stimulus":"stimulus/B13.jpg","key_press":65,"total":"exp","test_part":"train","correct_response":"B","trial_type":"categorize-image","trial_index":316,"time_elapsed":616592,"internal_node_id":"0.0-3.0-1.156"},{"rt":null,"stimulus":"<div style=\"font-size:60px;\">+</div>","key_press":null,"test_part":"fixation","trial_type":"html-keyboard-response","trial_index":317,"time_elapsed":617404,"internal_node_id":"0.0-3.0-0.157"},{"rt":708.2200000295416,"correct":true,"stimulus":"stimulus/B9.jpg","key_press":66,"total":"exp","test_part":"train","correct_response":"B","trial_type":"categorize-image","trial_index":318,"time_elapsed":620124,"internal_node_id":"0.0-3.0-1.157"},{"rt":null,"stimulus":"<div style=\"font-size:60px;\">+</div>","key_press":null,"test_part":"fixation","trial_type":"html-keyboard-response","trial_index":319,"time_elapsed":620735,"internal_node_id":"0.0-3.0-0.158"},{"rt":1127.5499999755993,"correct":false,"stimulus":"stimulus/A6.jpg","key_press":66,"total":"exp","test_part":"train","correct_response":"A","trial_type":"categorize-image","trial_index":320,"time_elapsed":623874,"internal_node_id":"0.0-3.0-1.158"},{"rt":null,"stimulus":"<div style=\"font-size:60px;\">+</div>","key_press":null,"test_part":"fixation","trial_type":"html-keyboard-response","trial_index":321,"time_elapsed":624485,"internal_node_id":"0.0-3.0-0.159"},{"rt":810.9150000382215,"correct":false,"stimulus":"stimulus/A4.jpg","key_press":66,"total":"exp","test_part":"train","correct_response":"A","trial_type":"categorize-image","trial_index":322,"time_elapsed":627307,"internal_node_id":"0.0-3.0-1.159"},{"rt":null,"stimulus":"<div style=\"font-size:60px;\">+</div>","key_press":null,"test_part":"fixation","trial_type":"html-keyboard-response","trial_index":323,"time_elapsed":628121,"internal_node_id":"0.0-3.0-0.160"},{"rt":801.5500000910833,"correct":true,"stimulus":"stimulus/A2.jpg","key_press":65,"total":"exp","test_part":"test_seen","correct_response":"A","trial_type":"categorize-image","trial_index":324,"time_elapsed":630941,"internal_node_id":"0.0-3.0-1.160"},{"rt":null,"stimulus":"<div style=\"font-size:60px;\">+</div>","key_press":null,"test_part":"fixation","trial_type":"html-keyboard-response","trial_index":325,"time_elapsed":631551,"internal_node_id":"0.0-3.0-0.161"},{"rt":946.9399999361485,"correct":true,"stimulus":"stimulus/A5.jpg","key_press":65,"total":"exp","test_part":"train","correct_response":"A","trial_type":"categorize-image","trial_index":326,"time_elapsed":634508,"internal_node_id":"0.0-3.0-1.161"},{"rt":null,"stimulus":"<div style=\"font-size:60px;\">+</div>","key_press":null,"test_part":"fixation","trial_type":"html-keyboard-response","trial_index":327,"time_elapsed":635118,"internal_node_id":"0.0-3.0-0.162"},{"rt":754.5699999900535,"correct":true,"stimulus":"stimulus/B12.jpg","key_press":66,"total":"exp","test_part":"train","correct_response":"B","trial_type":"categorize-image","trial_index":328,"time_elapsed":637890,"internal_node_id":"0.0-3.0-1.162"},{"rt":null,"stimulus":"<div style=\"font-size:60px;\">+</div>","key_press":null,"test_part":"fixation","trial_type":"html-keyboard-response","trial_index":329,"time_elapsed":638705,"internal_node_id":"0.0-3.0-0.163"},{"rt":995.7500000018626,"correct":false,"stimulus":"stimulus/A6.jpg","key_press":66,"total":"exp","test_part":"train","correct_response":"A","trial_type":"categorize-image","trial_index":330,"time_elapsed":641705,"internal_node_id":"0.0-3.0-1.163"},{"rt":null,"stimulus":"<div style=\"font-size:60px;\">+</div>","key_press":null,"test_part":"fixation","trial_type":"html-keyboard-response","trial_index":331,"time_elapsed":642508,"internal_node_id":"0.0-3.0-0.164"},{"rt":984.2550000175834,"correct":true,"stimulus":"stimulus/A4.jpg","key_press":65,"total":"exp","test_part":"train","correct_response":"A","trial_type":"categorize-image","trial_index":332,"time_elapsed":645505,"internal_node_id":"0.0-3.0-1.164"},{"rt":null,"stimulus":"<div style=\"font-size:60px;\">+</div>","key_press":null,"test_part":"fixation","trial_type":"html-keyboard-response","trial_index":333,"time_elapsed":646321,"internal_node_id":"0.0-3.0-0.165"},{"rt":1840.6049999175593,"correct":true,"stimulus":"stimulus/B14.jpg","key_press":66,"total":"exp","test_part":"test_seen","correct_response":"B","trial_type":"categorize-image","trial_index":334,"time_elapsed":650172,"internal_node_id":"0.0-3.0-1.165"},{"rt":null,"stimulus":"<div style=\"font-size:60px;\">+</div>","key_press":null,"test_part":"fixation","trial_type":"html-keyboard-response","trial_index":335,"time_elapsed":650987,"internal_node_id":"0.0-3.0-0.166"},{"rt":798.160000005737,"correct":true,"stimulus":"stimulus/A3.jpg","key_press":65,"total":"exp","test_part":"train","correct_response":"A","trial_type":"categorize-image","trial_index":336,"time_elapsed":653792,"internal_node_id":"0.0-3.0-1.166"},{"rt":null,"stimulus":"<div style=\"font-size:60px;\">+</div>","key_press":null,"test_part":"fixation","trial_type":"html-keyboard-response","trial_index":337,"time_elapsed":654605,"internal_node_id":"0.0-3.0-0.167"},{"rt":825.7900000317022,"correct":false,"stimulus":"stimulus/B13.jpg","key_press":65,"total":"exp","test_part":"train","correct_response":"B","trial_type":"categorize-image","trial_index":338,"time_elapsed":657440,"internal_node_id":"0.0-3.0-1.167"},{"rt":null,"stimulus":"<div style=\"font-size:60px;\">+</div>","key_press":null,"test_part":"fixation","trial_type":"html-keyboard-response","trial_index":339,"time_elapsed":658049,"internal_node_id":"0.0-3.0-0.168"},{"rt":880.3100000368431,"correct":false,"stimulus":"stimulus/B11.jpg","key_press":65,"total":"exp","test_part":"train","correct_response":"B","trial_type":"categorize-image","trial_index":340,"time_elapsed":660938,"internal_node_id":"0.0-3.0-1.168"},{"rt":null,"stimulus":"<div style=\"font-size:60px;\">+</div>","key_press":null,"test_part":"fixation","trial_type":"html-keyboard-response","trial_index":341,"time_elapsed":661549,"internal_node_id":"0.0-3.0-0.169"},{"rt":894.3499999586493,"correct":true,"stimulus":"stimulus/B9.jpg","key_press":66,"total":"exp","test_part":"train","correct_response":"B","trial_type":"categorize-image","trial_index":342,"time_elapsed":664447,"internal_node_id":"0.0-3.0-1.169"},{"rt":null,"stimulus":"<div style=\"font-size:60px;\">+</div>","key_press":null,"test_part":"fixation","trial_type":"html-keyboard-response","trial_index":343,"time_elapsed":665049,"internal_node_id":"0.0-3.0-0.170"},{"rt":645.8450000500306,"correct":true,"stimulus":"stimulus/A2.jpg","key_press":65,"total":"exp","test_part":"test_seen","correct_response":"A","trial_type":"categorize-image","trial_index":344,"time_elapsed":667706,"internal_node_id":"0.0-3.0-1.170"},{"rt":null,"stimulus":"<div style=\"font-size:60px;\">+</div>","key_press":null,"test_part":"fixation","trial_type":"html-keyboard-response","trial_index":345,"time_elapsed":668308,"internal_node_id":"0.0-3.0-0.171"},{"rt":1001.3549999566749,"correct":true,"stimulus":"stimulus/B11.jpg","key_press":66,"total":"exp","test_part":"train","correct_response":"B","trial_type":"categorize-image","trial_index":346,"time_elapsed":671312,"internal_node_id":"0.0-3.0-1.171"},{"rt":null,"stimulus":"<div style=\"font-size:60px;\">+</div>","key_press":null,"test_part":"fixation","trial_type":"html-keyboard-response","trial_index":347,"time_elapsed":672114,"internal_node_id":"0.0-3.0-0.172"},{"rt":854.2000000597909,"correct":true,"stimulus":"stimulus/B12.jpg","key_press":66,"total":"exp","test_part":"train","correct_response":"B","trial_type":"categorize-image","trial_index":348,"time_elapsed":674971,"internal_node_id":"0.0-3.0-1.172"},{"rt":null,"stimulus":"<div style=\"font-size:60px;\">+</div>","key_press":null,"test_part":"fixation","trial_type":"html-keyboard-response","trial_index":349,"time_elapsed":675573,"internal_node_id":"0.0-3.0-0.173"},{"rt":2190.379999927245,"correct":false,"stimulus":"stimulus/B13.jpg","key_press":65,"total":"exp","test_part":"train","correct_response":"B","trial_type":"categorize-image","trial_index":350,"time_elapsed":679775,"internal_node_id":"0.0-3.0-1.173"},{"rt":null,"stimulus":"<div style=\"font-size:60px;\">+</div>","key_press":null,"test_part":"fixation","trial_type":"html-keyboard-response","trial_index":351,"time_elapsed":680382,"internal_node_id":"0.0-3.0-0.174"},{"rt":1545.369999948889,"correct":false,"stimulus":"stimulus/A6.jpg","key_press":66,"total":"exp","test_part":"train","correct_response":"A","trial_type":"categorize-image","trial_index":352,"time_elapsed":683938,"internal_node_id":"0.0-3.0-1.174"},{"rt":null,"stimulus":"<div style=\"font-size:60px;\">+</div>","key_press":null,"test_part":"fixation","trial_type":"html-keyboard-response","trial_index":353,"time_elapsed":684549,"internal_node_id":"0.0-3.0-0.175"},{"rt":980.4200000362471,"correct":false,"stimulus":"stimulus/B9.jpg","key_press":65,"total":"exp","test_part":"train","correct_response":"B","trial_type":"categorize-image","trial_index":354,"time_elapsed":687538,"internal_node_id":"0.0-3.0-1.175"},{"rt":null,"stimulus":"<div style=\"font-size:60px;\">+</div>","key_press":null,"test_part":"fixation","trial_type":"html-keyboard-response","trial_index":355,"time_elapsed":688148,"internal_node_id":"0.0-3.0-0.176"},{"rt":1304.7200000146404,"correct":true,"stimulus":"stimulus/A4.jpg","key_press":65,"total":"exp","test_part":"train","correct_response":"A","trial_type":"categorize-image","trial_index":356,"time_elapsed":691457,"internal_node_id":"0.0-3.0-1.176"},{"rt":null,"stimulus":"<div style=\"font-size:60px;\">+</div>","key_press":null,"test_part":"fixation","trial_type":"html-keyboard-response","trial_index":357,"time_elapsed":692274,"internal_node_id":"0.0-3.0-0.177"},{"rt":1555.445000063628,"correct":false,"stimulus":"stimulus/B14.jpg","key_press":65,"total":"exp","test_part":"test_seen","correct_response":"B","trial_type":"categorize-image","trial_index":358,"time_elapsed":695838,"internal_node_id":"0.0-3.0-1.177"},{"rt":null,"stimulus":"<div style=\"font-size:60px;\">+</div>","key_press":null,"test_part":"fixation","trial_type":"html-keyboard-response","trial_index":359,"time_elapsed":696452,"internal_node_id":"0.0-3.0-0.178"},{"rt":976.920000044629,"correct":true,"stimulus":"stimulus/A5.jpg","key_press":65,"total":"exp","test_part":"train","correct_response":"A","trial_type":"categorize-image","trial_index":360,"time_elapsed":699432,"internal_node_id":"0.0-3.0-1.178"},{"rt":null,"stimulus":"<div style=\"font-size:60px;\">+</div>","key_press":null,"test_part":"fixation","trial_type":"html-keyboard-response","trial_index":361,"time_elapsed":700233,"internal_node_id":"0.0-3.0-0.179"},{"rt":772.0449999906123,"correct":true,"stimulus":"stimulus/A3.jpg","key_press":65,"total":"exp","test_part":"train","correct_response":"A","trial_type":"categorize-image","trial_index":362,"time_elapsed":703008,"internal_node_id":"0.0-3.0-1.179"},{"rt":5227.030000067316,"stimulus":"<p>This is the testing phase of the experiment. Feedback will NOT be provided in this session. The total number of trials in this phase are 60.<br>Press any key to begin.</p>","key_press":32,"trial_type":"html-keyboard-response","trial_index":363,"time_elapsed":708236,"internal_node_id":"0.0-4.0"},{"rt":null,"stimulus":"<div style=\"font-size:60px;\">+</div>","key_press":null,"test_part":"fixation","trial_type":"html-keyboard-response","trial_index":364,"time_elapsed":709051,"internal_node_id":"0.0-5.0-0.0"},{"rt":1076.8600000301376,"correct":true,"stimulus":"stimulus/B14.jpg","key_press":66,"total":"exp","test_part":"test_seen","correct_response":"B","trial_type":"categorize-image","trial_index":365,"time_elapsed":710131,"internal_node_id":"0.0-5.0-1.0"},{"rt":null,"stimulus":"<div style=\"font-size:60px;\">+</div>","key_press":null,"test_part":"fixation","trial_type":"html-keyboard-response","trial_index":366,"time_elapsed":710936,"internal_node_id":"0.0-5.0-0.1"},{"rt":1353.2600000035018,"correct":true,"stimulus":"stimulus/B8.jpg","key_press":66,"total":"exp","test_part":"test_prototype","correct_response":"B","trial_type":"categorize-image","trial_index":367,"time_elapsed":712292,"internal_node_id":"0.0-5.0-1.1"},{"rt":null,"stimulus":"<div style=\"font-size:60px;\">+</div>","key_press":null,"test_part":"fixation","trial_type":"html-keyboard-response","trial_index":368,"time_elapsed":713103,"internal_node_id":"0.0-5.0-0.2"},{"rt":906.2649999978021,"correct":true,"stimulus":"stimulus/A7.jpg","key_press":65,"total":"exp","test_part":"test_unseen","correct_response":"A","trial_type":"categorize-image","trial_index":369,"time_elapsed":714013,"internal_node_id":"0.0-5.0-1.2"},{"rt":null,"stimulus":"<div style=\"font-size:60px;\">+</div>","key_press":null,"test_part":"fixation","trial_type":"html-keyboard-response","trial_index":370,"time_elapsed":714617,"internal_node_id":"0.0-5.0-0.3"},{"rt":684.9700000602752,"correct":true,"stimulus":"stimulus/A2.jpg","key_press":65,"total":"exp","test_part":"test_seen","correct_response":"A","trial_type":"categorize-image","trial_index":371,"time_elapsed":715305,"internal_node_id":"0.0-5.0-1.3"},{"rt":null,"stimulus":"<div style=\"font-size:60px;\">+</div>","key_press":null,"test_part":"fixation","trial_type":"html-keyboard-response","trial_index":372,"time_elapsed":716121,"internal_node_id":"0.0-5.0-0.4"},{"rt":1421.764999977313,"correct":false,"stimulus":"stimulus/B10.jpg","key_press":65,"total":"exp","test_part":"test_unseen","correct_response":"B","trial_type":"categorize-image","trial_index":373,"time_elapsed":717548,"internal_node_id":"0.0-5.0-1.4"},{"rt":null,"stimulus":"<div style=\"font-size:60px;\">+</div>","key_press":null,"test_part":"fixation","trial_type":"html-keyboard-response","trial_index":374,"time_elapsed":718152,"internal_node_id":"0.0-5.0-0.5"},{"rt":750.8349999552593,"correct":true,"stimulus":"stimulus/A1.jpg","key_press":65,"total":"exp","test_part":"test_prototype","correct_response":"A","trial_type":"categorize-image","trial_index":375,"time_elapsed":718906,"internal_node_id":"0.0-5.0-1.5"},{"rt":null,"stimulus":"<div style=\"font-size:60px;\">+</div>","key_press":null,"test_part":"fixation","trial_type":"html-keyboard-response","trial_index":376,"time_elapsed":719710,"internal_node_id":"0.0-5.0-0.6"},{"rt":1426.3600000413135,"correct":false,"stimulus":"stimulus/B14.jpg","key_press":65,"total":"exp","test_part":"test_seen","correct_response":"B","trial_type":"categorize-image","trial_index":377,"time_elapsed":721139,"internal_node_id":"0.0-5.0-1.6"},{"rt":null,"stimulus":"<div style=\"font-size:60px;\">+</div>","key_press":null,"test_part":"fixation","trial_type":"html-keyboard-response","trial_index":378,"time_elapsed":721754,"internal_node_id":"0.0-5.0-0.7"},{"rt":749.7750000329688,"correct":true,"stimulus":"stimulus/A2.jpg","key_press":65,"total":"exp","test_part":"test_seen","correct_response":"A","trial_type":"categorize-image","trial_index":379,"time_elapsed":722507,"internal_node_id":"0.0-5.0-1.7"},{"rt":null,"stimulus":"<div style=\"font-size:60px;\">+</div>","key_press":null,"test_part":"fixation","trial_type":"html-keyboard-response","trial_index":380,"time_elapsed":723119,"internal_node_id":"0.0-5.0-0.8"},{"rt":1140.209999983199,"correct":true,"stimulus":"stimulus/A7.jpg","key_press":65,"total":"exp","test_part":"test_unseen","correct_response":"A","trial_type":"categorize-image","trial_index":381,"time_elapsed":724262,"internal_node_id":"0.0-5.0-1.8"},{"rt":null,"stimulus":"<div style=\"font-size:60px;\">+</div>","key_press":null,"test_part":"fixation","trial_type":"html-keyboard-response","trial_index":382,"time_elapsed":724869,"internal_node_id":"0.0-5.0-0.9"},{"rt":1787.9949999041855,"correct":true,"stimulus":"stimulus/B8.jpg","key_press":66,"total":"exp","test_part":"test_prototype","correct_response":"B","trial_type":"categorize-image","trial_index":383,"time_elapsed":726660,"internal_node_id":"0.0-5.0-1.9"},{"rt":null,"stimulus":"<div style=\"font-size:60px;\">+</div>","key_press":null,"test_part":"fixation","trial_type":"html-keyboard-response","trial_index":384,"time_elapsed":727472,"internal_node_id":"0.0-5.0-0.10"},{"rt":803.8249999517575,"correct":false,"stimulus":"stimulus/B10.jpg","key_press":65,"total":"exp","test_part":"test_unseen","correct_response":"B","trial_type":"categorize-image","trial_index":385,"time_elapsed":728280,"internal_node_id":"0.0-5.0-1.10"},{"rt":null,"stimulus":"<div style=\"font-size:60px;\">+</div>","key_press":null,"test_part":"fixation","trial_type":"html-keyboard-response","trial_index":386,"time_elapsed":729089,"internal_node_id":"0.0-5.0-0.11"},{"rt":864.8549999343231,"correct":true,"stimulus":"stimulus/A1.jpg","key_press":65,"total":"exp","test_part":"test_prototype","correct_response":"A","trial_type":"categorize-image","trial_index":387,"time_elapsed":729956,"internal_node_id":"0.0-5.0-1.11"},{"rt":null,"stimulus":"<div style=\"font-size:60px;\">+</div>","key_press":null,"test_part":"fixation","trial_type":"html-keyboard-response","trial_index":388,"time_elapsed":730570,"internal_node_id":"0.0-5.0-0.12"},{"rt":610.3850000072271,"correct":true,"stimulus":"stimulus/A1.jpg","key_press":65,"total":"exp","test_part":"test_prototype","correct_response":"A","trial_type":"categorize-image","trial_index":389,"time_elapsed":731184,"internal_node_id":"0.0-5.0-1.12"},{"rt":null,"stimulus":"<div style=\"font-size:60px;\">+</div>","key_press":null,"test_part":"fixation","trial_type":"html-keyboard-response","trial_index":390,"time_elapsed":731988,"internal_node_id":"0.0-5.0-0.13"},{"rt":2132.5850000139326,"correct":false,"stimulus":"stimulus/B14.jpg","key_press":65,"total":"exp","test_part":"test_seen","correct_response":"B","trial_type":"categorize-image","trial_index":391,"time_elapsed":734123,"internal_node_id":"0.0-5.0-1.13"},{"rt":null,"stimulus":"<div style=\"font-size:60px;\">+</div>","key_press":null,"test_part":"fixation","trial_type":"html-keyboard-response","trial_index":392,"time_elapsed":734736,"internal_node_id":"0.0-5.0-0.14"},{"rt":2114.7749999072403,"correct":true,"stimulus":"stimulus/B10.jpg","key_press":66,"total":"exp","test_part":"test_unseen","correct_response":"B","trial_type":"categorize-image","trial_index":393,"time_elapsed":736854,"internal_node_id":"0.0-5.0-1.14"},{"rt":null,"stimulus":"<div style=\"font-size:60px;\">+</div>","key_press":null,"test_part":"fixation","trial_type":"html-keyboard-response","trial_index":394,"time_elapsed":737470,"internal_node_id":"0.0-5.0-0.15"},{"rt":809.0799999190494,"correct":true,"stimulus":"stimulus/A7.jpg","key_press":65,"total":"exp","test_part":"test_unseen","correct_response":"A","trial_type":"categorize-image","trial_index":395,"time_elapsed":738282,"internal_node_id":"0.0-5.0-1.15"},{"rt":null,"stimulus":"<div style=\"font-size:60px;\">+</div>","key_press":null,"test_part":"fixation","trial_type":"html-keyboard-response","trial_index":396,"time_elapsed":739089,"internal_node_id":"0.0-5.0-0.16"},{"rt":705.5449999170378,"correct":true,"stimulus":"stimulus/A2.jpg","key_press":65,"total":"exp","test_part":"test_seen","correct_response":"A","trial_type":"categorize-image","trial_index":397,"time_elapsed":739797,"internal_node_id":"0.0-5.0-1.16"},{"rt":null,"stimulus":"<div style=\"font-size:60px;\">+</div>","key_press":null,"test_part":"fixation","trial_type":"html-keyboard-response","trial_index":398,"time_elapsed":740403,"internal_node_id":"0.0-5.0-0.17"},{"rt":1411.6700000595301,"correct":true,"stimulus":"stimulus/B8.jpg","key_press":66,"total":"exp","test_part":"test_prototype","correct_response":"B","trial_type":"categorize-image","trial_index":399,"time_elapsed":741819,"internal_node_id":"0.0-5.0-1.17"},{"rt":null,"stimulus":"<div style=\"font-size:60px;\">+</div>","key_press":null,"test_part":"fixation","trial_type":"html-keyboard-response","trial_index":400,"time_elapsed":742621,"internal_node_id":"0.0-5.0-0.18"},{"rt":737.870000069961,"correct":true,"stimulus":"stimulus/A2.jpg","key_press":65,"total":"exp","test_part":"test_seen","correct_response":"A","trial_type":"categorize-image","trial_index":401,"time_elapsed":743362,"internal_node_id":"0.0-5.0-1.18"},{"rt":null,"stimulus":"<div style=\"font-size:60px;\">+</div>","key_press":null,"test_part":"fixation","trial_type":"html-keyboard-response","trial_index":402,"time_elapsed":744172,"internal_node_id":"0.0-5.0-0.19"},{"rt":690.595000050962,"correct":true,"stimulus":"stimulus/A1.jpg","key_press":65,"total":"exp","test_part":"test_prototype","correct_response":"A","trial_type":"categorize-image","trial_index":403,"time_elapsed":744865,"internal_node_id":"0.0-5.0-1.19"},{"rt":null,"stimulus":"<div style=\"font-size:60px;\">+</div>","key_press":null,"test_part":"fixation","trial_type":"html-keyboard-response","trial_index":404,"time_elapsed":745469,"internal_node_id":"0.0-5.0-0.20"},{"rt":1432.6900000451133,"correct":true,"stimulus":"stimulus/A7.jpg","key_press":65,"total":"exp","test_part":"test_unseen","correct_response":"A","trial_type":"categorize-image","trial_index":405,"time_elapsed":746905,"internal_node_id":"0.0-5.0-1.20"},{"rt":null,"stimulus":"<div style=\"font-size:60px;\">+</div>","key_press":null,"test_part":"fixation","trial_type":"html-keyboard-response","trial_index":406,"time_elapsed":747707,"internal_node_id":"0.0-5.0-0.21"},{"rt":1775.5299999844283,"correct":true,"stimulus":"stimulus/B10.jpg","key_press":66,"total":"exp","test_part":"test_unseen","correct_response":"B","trial_type":"categorize-image","trial_index":407,"time_elapsed":749485,"internal_node_id":"0.0-5.0-1.21"},{"rt":null,"stimulus":"<div style=\"font-size:60px;\">+</div>","key_press":null,"test_part":"fixation","trial_type":"html-keyboard-response","trial_index":408,"time_elapsed":750101,"internal_node_id":"0.0-5.0-0.22"},{"rt":1774.5750000467524,"correct":false,"stimulus":"stimulus/B14.jpg","key_press":65,"total":"exp","test_part":"test_seen","correct_response":"B","trial_type":"categorize-image","trial_index":409,"time_elapsed":751878,"internal_node_id":"0.0-5.0-1.22"},{"rt":null,"stimulus":"<div style=\"font-size:60px;\">+</div>","key_press":null,"test_part":"fixation","trial_type":"html-keyboard-response","trial_index":410,"time_elapsed":752487,"internal_node_id":"0.0-5.0-0.23"},{"rt":1575.1349999336526,"correct":true,"stimulus":"stimulus/B8.jpg","key_press":66,"total":"exp","test_part":"test_prototype","correct_response":"B","trial_type":"categorize-image","trial_index":411,"time_elapsed":754066,"internal_node_id":"0.0-5.0-1.23"},{"rt":null,"stimulus":"<div style=\"font-size:60px;\">+</div>","key_press":null,"test_part":"fixation","trial_type":"html-keyboard-response","trial_index":412,"time_elapsed":754872,"internal_node_id":"0.0-5.0-0.24"},{"rt":602.3300000233576,"correct":true,"stimulus":"stimulus/A2.jpg","key_press":65,"total":"exp","test_part":"test_seen","correct_response":"A","trial_type":"categorize-image","trial_index":413,"time_elapsed":755477,"internal_node_id":"0.0-5.0-1.24"},{"rt":null,"stimulus":"<div style=\"font-size:60px;\">+</div>","key_press":null,"test_part":"fixation","trial_type":"html-keyboard-response","trial_index":414,"time_elapsed":756289,"internal_node_id":"0.0-5.0-0.25"},{"rt":762.4999999534339,"correct":true,"stimulus":"stimulus/A1.jpg","key_press":65,"total":"exp","test_part":"test_prototype","correct_response":"A","trial_type":"categorize-image","trial_index":415,"time_elapsed":757055,"internal_node_id":"0.0-5.0-1.25"},{"rt":null,"stimulus":"<div style=\"font-size:60px;\">+</div>","key_press":null,"test_part":"fixation","trial_type":"html-keyboard-response","trial_index":416,"time_elapsed":757669,"internal_node_id":"0.0-5.0-0.26"},{"rt":1574.5599999791011,"correct":true,"stimulus":"stimulus/B10.jpg","key_press":66,"total":"exp","test_part":"test_unseen","correct_response":"B","trial_type":"categorize-image","trial_index":417,"time_elapsed":759246,"internal_node_id":"0.0-5.0-1.26"},{"rt":null,"stimulus":"<div style=\"font-size:60px;\">+</div>","key_press":null,"test_part":"fixation","trial_type":"html-keyboard-response","trial_index":418,"time_elapsed":759853,"internal_node_id":"0.0-5.0-0.27"},{"rt":855.9050000039861,"correct":true,"stimulus":"stimulus/A7.jpg","key_press":65,"total":"exp","test_part":"test_unseen","correct_response":"A","trial_type":"categorize-image","trial_index":419,"time_elapsed":760712,"internal_node_id":"0.0-5.0-1.27"},{"rt":null,"stimulus":"<div style=\"font-size:60px;\">+</div>","key_press":null,"test_part":"fixation","trial_type":"html-keyboard-response","trial_index":420,"time_elapsed":761314,"internal_node_id":"0.0-5.0-0.28"},{"rt":1467.739999992773,"correct":true,"stimulus":"stimulus/B14.jpg","key_press":66,"total":"exp","test_part":"test_seen","correct_response":"B","trial_type":"categorize-image","trial_index":421,"time_elapsed":762785,"internal_node_id":"0.0-5.0-1.28"},{"rt":null,"stimulus":"<div style=\"font-size:60px;\">+</div>","key_press":null,"test_part":"fixation","trial_type":"html-keyboard-response","trial_index":422,"time_elapsed":763589,"internal_node_id":"0.0-5.0-0.29"},{"rt":850.0449999701232,"correct":true,"stimulus":"stimulus/B8.jpg","key_press":66,"total":"exp","test_part":"test_prototype","correct_response":"B","trial_type":"categorize-image","trial_index":423,"time_elapsed":764442,"internal_node_id":"0.0-5.0-1.29"},{"rt":null,"stimulus":"<div style=\"font-size:60px;\">+</div>","key_press":null,"test_part":"fixation","trial_type":"html-keyboard-response","trial_index":424,"time_elapsed":765052,"internal_node_id":"0.0-5.0-0.30"},{"rt":703.0550000490621,"correct":true,"stimulus":"stimulus/A2.jpg","key_press":65,"total":"exp","test_part":"test_seen","correct_response":"A","trial_type":"categorize-image","trial_index":425,"time_elapsed":765758,"internal_node_id":"0.0-5.0-1.30"},{"rt":null,"stimulus":"<div style=\"font-size:60px;\">+</div>","key_press":null,"test_part":"fixation","trial_type":"html-keyboard-response","trial_index":426,"time_elapsed":766370,"internal_node_id":"0.0-5.0-0.31"},{"rt":2483.2450000103563,"correct":true,"