[{"rt":3541.685000003781,"stimulus":"Welcome null. Press any key to continue.","key_press":32,"trial_type":"html-keyboard-response","trial_index":0,"time_elapsed":3637,"internal_node_id":"0.0-0.0"},{"rt":24441.16499996744,"stimulus":"<p>In this experiment, you will see a series of line drawings of bugs which can be classified either as Category A bugs or as Category B bugs.<br> Your job is to look carefully at each bug and decide if it belongs to Category A or Category B.</p> <p>Press “a” on the keyboard if you think it is a Category A bug and “b” if you think it is a Category B bug.<br> At first, the task will seem quite difficult, but with time and practice, you should be able to answer correctly</p><p>Press any key to continue</p>","key_press":32,"trial_type":"html-keyboard-response","trial_index":1,"time_elapsed":28081,"internal_node_id":"0.0-1.0"},{"rt":6631.585000024643,"stimulus":"<p>This is the training phase of the experiment. Feedback will be provided after each trial in this session. The total number of trials in this phase are 180.<br>Press any key to begin.</p>","key_press":32,"trial_type":"html-keyboard-response","trial_index":2,"time_elapsed":34715,"internal_node_id":"0.0-2.0"},{"rt":null,"stimulus":"<div style=\"font-size:60px;\">+</div>","key_press":null,"test_part":"fixation","trial_type":"html-keyboard-response","trial_index":3,"time_elapsed":35535,"internal_node_id":"0.0-3.0-0.0"},{"rt":3363.595000002533,"correct":true,"stimulus":"stimulus/A3.jpg","key_press":65,"total":"exp","test_part":"train","correct_response":"A","trial_type":"categorize-image","trial_index":4,"time_elapsed":40920,"internal_node_id":"0.0-3.0-1.0"},{"rt":null,"stimulus":"<div style=\"font-size:60px;\">+</div>","key_press":null,"test_part":"fixation","trial_type":"html-keyboard-response","trial_index":5,"time_elapsed":41725,"internal_node_id":"0.0-3.0-0.1"},{"rt":1079.0999999735504,"correct":false,"stimulus":"stimulus/A6.jpg","key_press":66,"total":"exp","test_part":"train","correct_response":"A","trial_type":"categorize-image","trial_index":6,"time_elapsed":44813,"internal_node_id":"0.0-3.0-1.1"},{"rt":null,"stimulus":"<div style=\"font-size:60px;\">+</div>","key_press":null,"test_part":"fixation","trial_type":"html-keyboard-response","trial_index":7,"time_elapsed":45430,"internal_node_id":"0.0-3.0-0.2"},{"rt":21.33499999763444,"correct":true,"stimulus":"stimulus/A4.jpg","key_press":65,"total":"exp","test_part":"train","correct_response":"A","trial_type":"categorize-image","trial_index":8,"time_elapsed":47460,"internal_node_id":"0.0-3.0-1.2"},{"rt":null,"stimulus":"<div style=\"font-size:60px;\">+</div>","key_press":null,"test_part":"fixation","trial_type":"html-keyboard-response","trial_index":9,"time_elapsed":48269,"internal_node_id":"0.0-3.0-0.3"},{"rt":655.9150000102818,"correct":false,"stimulus":"stimulus/B13.jpg","key_press":65,"total":"exp","test_part":"train","correct_response":"B","trial_type":"categorize-image","trial_index":10,"time_elapsed":50941,"internal_node_id":"0.0-3.0-1.3"},{"rt":null,"stimulus":"<div style=\"font-size:60px;\">+</div>","key_press":null,"test_part":"fixation","trial_type":"html-keyboard-response","trial_index":11,"time_elapsed":51744,"internal_node_id":"0.0-3.0-0.4"},{"rt":1637.0650000171736,"correct":true,"stimulus":"stimulus/B10.jpg","key_press":66,"total":"exp","test_part":"train","correct_response":"B","trial_type":"categorize-image","trial_index":12,"time_elapsed":55399,"internal_node_id":"0.0-3.0-1.4"},{"rt":null,"stimulus":"<div style=\"font-size:60px;\">+</div>","key_press":null,"test_part":"fixation","trial_type":"html-keyboard-response","trial_index":13,"time_elapsed":56215,"internal_node_id":"0.0-3.0-0.5"},{"rt":723.4799999860115,"correct":false,"stimulus":"stimulus/B11.jpg","key_press":65,"total":"exp","test_part":"train","correct_response":"B","trial_type":"categorize-image","trial_index":14,"time_elapsed":58955,"internal_node_id":"0.0-3.0-1.5"},{"rt":null,"stimulus":"<div style=\"font-size:60px;\">+</div>","key_press":null,"test_part":"fixation","trial_type":"html-keyboard-response","trial_index":15,"time_elapsed":59570,"internal_node_id":"0.0-3.0-0.6"},{"rt":2136.8950000032783,"correct":true,"stimulus":"stimulus/A5.jpg","key_press":65,"total":"exp","test_part":"train","correct_response":"A","trial_type":"categorize-image","trial_index":16,"time_elapsed":63714,"internal_node_id":"0.0-3.0-1.6"},{"rt":null,"stimulus":"<div style=\"font-size:60px;\">+</div>","key_press":null,"test_part":"fixation","trial_type":"html-keyboard-response","trial_index":17,"time_elapsed":64329,"internal_node_id":"0.0-3.0-0.7"},{"rt":654.5049999840558,"correct":true,"stimulus":"stimulus/B14.jpg","key_press":66,"total":"exp","test_part":"train","correct_response":"B","trial_type":"categorize-image","trial_index":18,"time_elapsed":67002,"internal_node_id":"0.0-3.0-1.7"},{"rt":null,"stimulus":"<div style=\"font-size:60px;\">+</div>","key_press":null,"test_part":"fixation","trial_type":"html-keyboard-response","trial_index":19,"time_elapsed":67617,"internal_node_id":"0.0-3.0-0.8"},{"rt":1385.869999998249,"correct":true,"stimulus":"stimulus/B12.jpg","key_press":66,"total":"exp","test_part":"train","correct_response":"B","trial_type":"categorize-image","trial_index":20,"time_elapsed":71010,"internal_node_id":"0.0-3.0-1.8"},{"rt":null,"stimulus":"<div style=\"font-size:60px;\">+</div>","key_press":null,"test_part":"fixation","trial_type":"html-keyboard-response","trial_index":21,"time_elapsed":71625,"internal_node_id":"0.0-3.0-0.9"},{"rt":887.1449999860488,"correct":false,"stimulus":"stimulus/A7.jpg","key_press":66,"total":"exp","test_part":"train","correct_response":"A","trial_type":"categorize-image","trial_index":22,"time_elapsed":74528,"internal_node_id":"0.0-3.0-1.9"},{"rt":null,"stimulus":"<div style=\"font-size:60px;\">+</div>","key_press":null,"test_part":"fixation","trial_type":"html-keyboard-response","trial_index":23,"time_elapsed":75142,"internal_node_id":"0.0-3.0-0.10"},{"rt":2963.210000016261,"correct":false,"stimulus":"stimulus/B10.jpg","key_press":65,"total":"exp","test_part":"train","correct_response":"B","trial_type":"categorize-image","trial_index":24,"time_elapsed":80123,"internal_node_id":"0.0-3.0-1.10"},{"rt":null,"stimulus":"<div style=\"font-size:60px;\">+</div>","key_press":null,"test_part":"fixation","trial_type":"html-keyboard-response","trial_index":25,"time_elapsed":80926,"internal_node_id":"0.0-3.0-0.11"},{"rt":1118.709999951534,"correct":true,"stimulus":"stimulus/B13.jpg","key_press":66,"total":"exp","test_part":"train","correct_response":"B","trial_type":"categorize-image","trial_index":26,"time_elapsed":84056,"internal_node_id":"0.0-3.0-1.11"},{"rt":null,"stimulus":"<div style=\"font-size:60px;\">+</div>","key_press":null,"test_part":"fixation","trial_type":"html-keyboard-response","trial_index":27,"time_elapsed":84859,"internal_node_id":"0.0-3.0-0.12"},{"rt":820.3449999564327,"correct":false,"stimulus":"stimulus/A6.jpg","key_press":66,"total":"exp","test_part":"train","correct_response":"A","trial_type":"categorize-image","trial_index":28,"time_elapsed":87687,"internal_node_id":"0.0-3.0-1.12"},{"rt":null,"stimulus":"<div style=\"font-size:60px;\">+</div>","key_press":null,"test_part":"fixation","trial_type":"html-keyboard-response","trial_index":29,"time_elapsed":88492,"internal_node_id":"0.0-3.0-0.13"},{"rt":3959.065000002738,"correct":false,"stimulus":"stimulus/A5.jpg","key_press":66,"total":"exp","test_part":"train","correct_response":"A","trial_type":"categorize-image","trial_index":30,"time_elapsed":94464,"internal_node_id":"0.0-3.0-1.13"},{"rt":null,"stimulus":"<div style=\"font-size:60px;\">+</div>","key_press":null,"test_part":"fixation","trial_type":"html-keyboard-response","trial_index":31,"time_elapsed":95269,"internal_node_id":"0.0-3.0-0.14"},{"rt":1345.400000049267,"correct":true,"stimulus":"stimulus/B12.jpg","key_press":66,"total":"exp","test_part":"train","correct_response":"B","trial_type":"categorize-image","trial_index":32,"time_elapsed":98628,"internal_node_id":"0.0-3.0-1.14"},{"rt":null,"stimulus":"<div style=\"font-size:60px;\">+</div>","key_press":null,"test_part":"fixation","trial_type":"html-keyboard-response","trial_index":33,"time_elapsed":99243,"internal_node_id":"0.0-3.0-0.15"},{"rt":980.9499999973923,"correct":false,"stimulus":"stimulus/B14.jpg","key_press":65,"total":"exp","test_part":"train","correct_response":"B","trial_type":"categorize-image","trial_index":34,"time_elapsed":102228,"internal_node_id":"0.0-3.0-1.15"},{"rt":null,"stimulus":"<div style=\"font-size:60px;\">+</div>","key_press":null,"test_part":"fixation","trial_type":"html-keyboard-response","trial_index":35,"time_elapsed":102830,"internal_node_id":"0.0-3.0-0.16"},{"rt":4304.74500003038,"correct":true,"stimulus":"stimulus/A3.jpg","key_press":65,"total":"exp","test_part":"train","correct_response":"A","trial_type":"categorize-image","trial_index":36,"time_elapsed":109140,"internal_node_id":"0.0-3.0-1.16"},{"rt":null,"stimulus":"<div style=\"font-size:60px;\">+</div>","key_press":null,"test_part":"fixation","trial_type":"html-keyboard-response","trial_index":37,"time_elapsed":109743,"internal_node_id":"0.0-3.0-0.17"},{"rt":1289.229999994859,"correct":false,"stimulus":"stimulus/A7.jpg","key_press":66,"total":"exp","test_part":"train","correct_response":"A","trial_type":"categorize-image","trial_index":38,"time_elapsed":113037,"internal_node_id":"0.0-3.0-1.17"},{"rt":null,"stimulus":"<div style=\"font-size:60px;\">+</div>","key_press":null,"test_part":"fixation","trial_type":"html-keyboard-response","trial_index":39,"time_elapsed":113640,"internal_node_id":"0.0-3.0-0.18"},{"rt":1200.829999987036,"correct":false,"stimulus":"stimulus/A4.jpg","key_press":66,"total":"exp","test_part":"train","correct_response":"A","trial_type":"categorize-image","trial_index":40,"time_elapsed":116849,"internal_node_id":"0.0-3.0-1.18"},{"rt":null,"stimulus":"<div style=\"font-size:60px;\">+</div>","key_press":null,"test_part":"fixation","trial_type":"html-keyboard-response","trial_index":41,"time_elapsed":117454,"internal_node_id":"0.0-3.0-0.19"},{"rt":1261.6150000249036,"correct":true,"stimulus":"stimulus/B11.jpg","key_press":66,"total":"exp","test_part":"train","correct_response":"B","trial_type":"categorize-image","trial_index":42,"time_elapsed":120721,"internal_node_id":"0.0-3.0-1.19"},{"rt":null,"stimulus":"<div style=\"font-size:60px;\">+</div>","key_press":null,"test_part":"fixation","trial_type":"html-keyboard-response","trial_index":43,"time_elapsed":121523,"internal_node_id":"0.0-3.0-0.20"},{"rt":1744.6850000414997,"correct":true,"stimulus":"stimulus/B10.jpg","key_press":66,"total":"exp","test_part":"train","correct_response":"B","trial_type":"categorize-image","trial_index":44,"time_elapsed":125276,"internal_node_id":"0.0-3.0-1.20"},{"rt":null,"stimulus":"<div style=\"font-size:60px;\">+</div>","key_press":null,"test_part":"fixation","trial_type":"html-keyboard-response","trial_index":45,"time_elapsed":126080,"internal_node_id":"0.0-3.0-0.21"},{"rt":1460.190000012517,"correct":true,"stimulus":"stimulus/A7.jpg","key_press":65,"total":"exp","test_part":"train","correct_response":"A","trial_type":"categorize-image","trial_index":46,"time_elapsed":129552,"internal_node_id":"0.0-3.0-1.21"},{"rt":null,"stimulus":"<div style=\"font-size:60px;\">+</div>","key_press":null,"test_part":"fixation","trial_type":"html-keyboard-response","trial_index":47,"time_elapsed":130354,"internal_node_id":"0.0-3.0-0.22"},{"rt":1016.5050000068732,"correct":true,"stimulus":"stimulus/A5.jpg","key_press":65,"total":"exp","test_part":"train","correct_response":"A","trial_type":"categorize-image","trial_index":48,"time_elapsed":133377,"internal_node_id":"0.0-3.0-1.22"},{"rt":null,"stimulus":"<div style=\"font-size:60px;\">+</div>","key_press":null,"test_part":"fixation","trial_type":"html-keyboard-response","trial_index":49,"time_elapsed":133979,"internal_node_id":"0.0-3.0-0.23"},{"rt":795.6150000100024,"correct":true,"stimulus":"stimulus/A3.jpg","key_press":65,"total":"exp","test_part":"train","correct_response":"A","trial_type":"categorize-image","trial_index":50,"time_elapsed":136782,"internal_node_id":"0.0-3.0-1.23"},{"rt":null,"stimulus":"<div style=\"font-size:60px;\">+</div>","key_press":null,"test_part":"fixation","trial_type":"html-keyboard-response","trial_index":51,"time_elapsed":137384,"internal_node_id":"0.0-3.0-0.24"},{"rt":1099.2199999745935,"correct":true,"stimulus":"stimulus/B12.jpg","key_press":66,"total":"exp","test_part":"train","correct_response":"B","trial_type":"categorize-image","trial_index":52,"time_elapsed":140492,"internal_node_id":"0.0-3.0-1.24"},{"rt":null,"stimulus":"<div style=\"font-size:60px;\">+</div>","key_press":null,"test_part":"fixation","trial_type":"html-keyboard-response","trial_index":53,"time_elapsed":141096,"internal_node_id":"0.0-3.0-0.25"},{"rt":735.5550000211224,"correct":true,"stimulus":"stimulus/B14.jpg","key_press":66,"total":"exp","test_part":"train","correct_response":"B","trial_type":"categorize-image","trial_index":54,"time_elapsed":143835,"internal_node_id":"0.0-3.0-1.25"},{"rt":null,"stimulus":"<div style=\"font-size:60px;\">+</div>","key_press":null,"test_part":"fixation","trial_type":"html-keyboard-response","trial_index":55,"time_elapsed":144437,"internal_node_id":"0.0-3.0-0.26"},{"rt":617.4799999571405,"correct":false,"stimulus":"stimulus/A6.jpg","key_press":66,"total":"exp","test_part":"train","correct_response":"A","trial_type":"categorize-image","trial_index":56,"time_elapsed":147074,"internal_node_id":"0.0-3.0-1.26"},{"rt":null,"stimulus":"<div style=\"font-size:60px;\">+</div>","key_press":null,"test_part":"fixation","trial_type":"html-keyboard-response","trial_index":57,"time_elapsed":147687,"internal_node_id":"0.0-3.0-0.27"},{"rt":2681.330000050366,"correct":true,"stimulus":"stimulus/B13.jpg","key_press":66,"total":"exp","test_part":"train","correct_response":"B","trial_type":"categorize-image","trial_index":58,"time_elapsed":152389,"internal_node_id":"0.0-3.0-1.27"},{"rt":null,"stimulus":"<div style=\"font-size:60px;\">+</div>","key_press":null,"test_part":"fixation","trial_type":"html-keyboard-response","trial_index":59,"time_elapsed":153204,"internal_node_id":"0.0-3.0-0.28"},{"rt":1043.4949999907985,"correct":true,"stimulus":"stimulus/A4.jpg","key_press":65,"total":"exp","test_part":"train","correct_response":"A","trial_type":"categorize-image","trial_index":60,"time_elapsed":156260,"internal_node_id":"0.0-3.0-1.28"},{"rt":null,"stimulus":"<div style=\"font-size:60px;\">+</div>","key_press":null,"test_part":"fixation","trial_type":"html-keyboard-response","trial_index":61,"time_elapsed":156876,"internal_node_id":"0.0-3.0-0.29"},{"rt":1362.8849999513477,"correct":true,"stimulus":"stimulus/B11.jpg","key_press":66,"total":"exp","test_part":"train","correct_response":"B","trial_type":"categorize-image","trial_index":62,"time_elapsed":160244,"internal_node_id":"0.0-3.0-1.29"},{"rt":null,"stimulus":"<div style=\"font-size:60px;\">+</div>","key_press":null,"test_part":"fixation","trial_type":"html-keyboard-response","trial_index":63,"time_elapsed":160845,"internal_node_id":"0.0-3.0-0.30"},{"rt":776.575000025332,"correct":true,"stimulus":"stimulus/A4.jpg","key_press":65,"total":"exp","test_part":"train","correct_response":"A","trial_type":"categorize-image","trial_index":64,"time_elapsed":163629,"internal_node_id":"0.0-3.0-1.30"},{"rt":null,"stimulus":"<div style=\"font-size:60px;\">+</div>","key_press":null,"test_part":"fixation","trial_type":"html-keyboard-response","trial_index":65,"time_elapsed":164231,"internal_node_id":"0.0-3.0-0.31"},{"rt":805.8850000379607,"correct":true,"stimulus":"stimulus/B14.jpg","key_press":66,"total":"exp","test_part":"train","correct_response":"B","trial_type":"categorize-image","trial_index":66,"time_elapsed":167044,"internal_node_id":"0.0-3.0-1.31"},{"rt":null,"stimulus":"<div style=\"font-size:60px;\">+</div>","key_press":null,"test_part":"fixation","trial_type":"html-keyboard-response","trial_index":67,"time_elapsed":167849,"internal_node_id":"0.0-3.0-0.32"},{"rt":1675.2099999575876,"correct":true,"stimulus":"stimulus/A7.jpg","key_press":65,"total":"exp","test_part":"train","correct_response":"A","trial_type":"categorize-image","trial_index":68,"time_elapsed":171534,"internal_node_id":"0.0-3.0-1.32"},{"rt":null,"stimulus":"<div style=\"font-size:60px;\">+</div>","key_press":null,"test_part":"fixation","trial_type":"html-keyboard-response","trial_index":69,"time_elapsed":172146,"internal_node_id":"0.0-3.0-0.33"},{"rt":1191.919999953825,"correct":true,"stimulus":"stimulus/B11.jpg","key_press":66,"total":"exp","test_part":"train","correct_response":"B","trial_type":"categorize-image","trial_index":70,"time_elapsed":175346,"internal_node_id":"0.0-3.0-1.33"},{"rt":null,"stimulus":"<div style=\"font-size:60px;\">+</div>","key_press":null,"test_part":"fixation","trial_type":"html-keyboard-response","trial_index":71,"time_elapsed":176151,"internal_node_id":"0.0-3.0-0.34"},{"rt":4992.020000005141,"correct":true,"stimulus":"stimulus/B13.jpg","key_press":66,"total":"exp","test_part":"train","correct_response":"B","trial_type":"categorize-image","trial_index":72,"time_elapsed":183163,"internal_node_id":"0.0-3.0-1.34"},{"rt":null,"stimulus":"<div style=\"font-size:60px;\">+</div>","key_press":null,"test_part":"fixation","trial_type":"html-keyboard-response","trial_index":73,"time_elapsed":183964,"internal_node_id":"0.0-3.0-0.35"},{"rt":1484.6399999805726,"correct":true,"stimulus":"stimulus/B12.jpg","key_press":66,"total":"exp","test_part":"train","correct_response":"B","trial_type":"categorize-image","trial_index":74,"time_elapsed":187462,"internal_node_id":"0.0-3.0-1.35"},{"rt":null,"stimulus":"<div style=\"font-size:60px;\">+</div>","key_press":null,"test_part":"fixation","trial_type":"html-keyboard-response","trial_index":75,"time_elapsed":188264,"internal_node_id":"0.0-3.0-0.36"},{"rt":1071.5249999775551,"correct":true,"stimulus":"stimulus/A5.jpg","key_press":65,"total":"exp","test_part":"train","correct_response":"A","trial_type":"categorize-image","trial_index":76,"time_elapsed":191356,"internal_node_id":"0.0-3.0-1.36"},{"rt":null,"stimulus":"<div style=\"font-size:60px;\">+</div>","key_press":null,"test_part":"fixation","trial_type":"html-keyboard-response","trial_index":77,"time_elapsed":191969,"internal_node_id":"0.0-3.0-0.37"},{"rt":722.3200000007637,"correct":true,"stimulus":"stimulus/B10.jpg","key_press":66,"total":"exp","test_part":"train","correct_response":"B","trial_type":"categorize-image","trial_index":78,"time_elapsed":194700,"internal_node_id":"0.0-3.0-1.37"},{"rt":null,"stimulus":"<div style=\"font-size:60px;\">+</div>","key_press":null,"test_part":"fixation","trial_type":"html-keyboard-response","trial_index":79,"time_elapsed":195315,"internal_node_id":"0.0-3.0-0.38"},{"rt":660.8350000460632,"correct":false,"stimulus":"stimulus/A6.jpg","key_press":66,"total":"exp","test_part":"train","correct_response":"A","trial_type":"categorize-image","trial_index":80,"time_elapsed":197984,"internal_node_id":"0.0-3.0-1.38"},{"rt":null,"stimulus":"<div style=\"font-size:60px;\">+</div>","key_press":null,"test_part":"fixation","trial_type":"html-keyboard-response","trial_index":81,"time_elapsed":198800,"internal_node_id":"0.0-3.0-0.39"},{"rt":751.9599999650382,"correct":true,"stimulus":"stimulus/A3.jpg","key_press":65,"total":"exp","test_part":"train","correct_response":"A","trial_type":"categorize-image","trial_index":82,"time_elapsed":201561,"internal_node_id":"0.0-3.0-1.39"},{"rt":null,"stimulus":"<div style=\"font-size:60px;\">+</div>","key_press":null,"test_part":"fixation","trial_type":"html-keyboard-response","trial_index":83,"time_elapsed":202163,"internal_node_id":"0.0-3.0-0.40"},{"rt":1312.1150000370108,"correct":true,"stimulus":"stimulus/B11.jpg","key_press":66,"total":"exp","test_part":"train","correct_response":"B","trial_type":"categorize-image","trial_index":84,"time_elapsed":205481,"internal_node_id":"0.0-3.0-1.40"},{"rt":null,"stimulus":"<div style=\"font-size:60px;\">+</div>","key_press":null,"test_part":"fixation","trial_type":"html-keyboard-response","trial_index":85,"time_elapsed":206083,"internal_node_id":"0.0-3.0-0.41"},{"rt":961.1100000329316,"correct":true,"stimulus":"stimulus/A4.jpg","key_press":65,"total":"exp","test_part":"train","correct_response":"A","trial_type":"categorize-image","trial_index":86,"time_elapsed":209058,"internal_node_id":"0.0-3.0-1.41"},{"rt":null,"stimulus":"<div style=\"font-size:60px;\">+</div>","key_press":null,"test_part":"fixation","trial_type":"html-keyboard-response","trial_index":87,"time_elapsed":209671,"internal_node_id":"0.0-3.0-0.42"},{"rt":1460.1249999832362,"correct":false,"stimulus":"stimulus/A3.jpg","key_press":66,"total":"exp","test_part":"train","correct_response":"A","trial_type":"categorize-image","trial_index":88,"time_elapsed":213137,"internal_node_id":"0.0-3.0-1.42"},{"rt":null,"stimulus":"<div style=\"font-size:60px;\">+</div>","key_press":null,"test_part":"fixation","trial_type":"html-keyboard-response","trial_index":89,"time_elapsed":213740,"internal_node_id":"0.0-3.0-0.43"},{"rt":1486.9499999913387,"correct":true,"stimulus":"stimulus/B12.jpg","key_press":66,"total":"exp","test_part":"train","correct_response":"B","trial_type":"categorize-image","trial_index":90,"time_elapsed":217240,"internal_node_id":"0.0-3.0-1.43"},{"rt":null,"stimulus":"<div style=\"font-size:60px;\">+</div>","key_press":null,"test_part":"fixation","trial_type":"html-keyboard-response","trial_index":91,"time_elapsed":218042,"internal_node_id":"0.0-3.0-0.44"},{"rt":1762.7949999878183,"correct":true,"stimulus":"stimulus/A5.jpg","key_press":65,"total":"exp","test_part":"train","correct_response":"A","trial_type":"categorize-image","trial_index":92,"time_elapsed":221815,"internal_node_id":"0.0-3.0-1.44"},{"rt":null,"stimulus":"<div style=\"font-size:60px;\">+</div>","key_press":null,"test_part":"fixation","trial_type":"html-keyboard-response","trial_index":93,"time_elapsed":222431,"internal_node_id":"0.0-3.0-0.45"},{"rt":1450.6299999775365,"correct":false,"stimulus":"stimulus/B14.jpg","key_press":65,"total":"exp","test_part":"train","correct_response":"B","trial_type":"categorize-image","trial_index":94,"time_elapsed":225890,"internal_node_id":"0.0-3.0-1.45"},{"rt":null,"stimulus":"<div style=\"font-size:60px;\">+</div>","key_press":null,"test_part":"fixation","trial_type":"html-keyboard-response","trial_index":95,"time_elapsed":226708,"internal_node_id":"0.0-3.0-0.46"},{"rt":2224.244999990333,"correct":true,"stimulus":"stimulus/B13.jpg","key_press":66,"total":"exp","test_part":"train","correct_response":"B","trial_type":"categorize-image","trial_index":96,"time_elapsed":230946,"internal_node_id":"0.0-3.0-1.46"},{"rt":null,"stimulus":"<div style=\"font-size:60px;\">+</div>","key_press":null,"test_part":"fixation","trial_type":"html-keyboard-response","trial_index":97,"time_elapsed":231753,"internal_node_id":"0.0-3.0-0.47"},{"rt":3309.2000000178814,"correct":true,"stimulus":"stimulus/B10.jpg","key_press":66,"total":"exp","test_part":"train","correct_response":"B","trial_type":"categorize-image","trial_index":98,"time_elapsed":237075,"internal_node_id":"0.0-3.0-1.47"},{"rt":null,"stimulus":"<div style=\"font-size:60px;\">+</div>","key_press":null,"test_part":"fixation","trial_type":"html-keyboard-response","trial_index":99,"time_elapsed":237880,"internal_node_id":"0.0-3.0-0.48"},{"rt":1392.905000015162,"correct":true,"stimulus":"stimulus/A7.jpg","key_press":65,"total":"exp","test_part":"train","correct_response":"A","trial_type":"categorize-image","trial_index":100,"time_elapsed":241285,"internal_node_id":"0.0-3.0-1.48"},{"rt":null,"stimulus":"<div style=\"font-size:60px;\">+</div>","key_press":null,"test_part":"fixation","trial_type":"html-keyboard-response","trial_index":101,"time_elapsed":241901,"internal_node_id":"0.0-3.0-0.49"},{"rt":1292.6250000018626,"correct":false,"stimulus":"stimulus/A6.jpg","key_press":66,"total":"exp","test_part":"train","correct_response":"A","trial_type":"categorize-image","trial_index":102,"time_elapsed":245210,"internal_node_id":"0.0-3.0-1.49"},{"rt":null,"stimulus":"<div style=\"font-size:60px;\">+</div>","key_press":null,"test_part":"fixation","trial_type":"html-keyboard-response","trial_index":103,"time_elapsed":246027,"internal_node_id":"0.0-3.0-0.50"},{"rt":713.2049999781884,"correct":true,"stimulus":"stimulus/A4.jpg","key_press":65,"total":"exp","test_part":"train","correct_response":"A","trial_type":"categorize-image","trial_index":104,"time_elapsed":248759,"internal_node_id":"0.0-3.0-1.50"},{"rt":null,"stimulus":"<div style=\"font-size:60px;\">+</div>","key_press":null,"test_part":"fixation","trial_type":"html-keyboard-response","trial_index":105,"time_elapsed":249360,"internal_node_id":"0.0-3.0-0.51"},{"rt":994.7849999880418,"correct":true,"stimulus":"stimulus/B11.jpg","key_press":66,"total":"exp","test_part":"train","correct_response":"B","trial_type":"categorize-image","trial_index":106,"time_elapsed":252365,"internal_node_id":"0.0-3.0-1.51"},{"rt":null,"stimulus":"<div style=\"font-size:60px;\">+</div>","key_press":null,"test_part":"fixation","trial_type":"html-keyboard-response","trial_index":107,"time_elapsed":253170,"internal_node_id":"0.0-3.0-0.52"},{"rt":3106.504999974277,"correct":false,"stimulus":"stimulus/A6.jpg","key_press":66,"total":"exp","test_part":"train","correct_response":"A","trial_type":"categorize-image","trial_index":108,"time_elapsed":258288,"internal_node_id":"0.0-3.0-1.52"},{"rt":null,"stimulus":"<div style=\"font-size:60px;\">+</div>","key_press":null,"test_part":"fixation","trial_type":"html-keyboard-response","trial_index":109,"time_elapsed":258905,"internal_node_id":"0.0-3.0-0.53"},{"rt":1499.530000030063,"correct":true,"stimulus":"stimulus/A7.jpg","key_press":65,"total":"exp","test_part":"train","correct_response":"A","trial_type":"categorize-image","trial_index":110,"time_elapsed":262419,"internal_node_id":"0.0-3.0-1.53"},{"rt":null,"stimulus":"<div style=\"font-size:60px;\">+</div>","key_press":null,"test_part":"fixation","trial_type":"html-keyboard-response","trial_index":111,"time_elapsed":263226,"internal_node_id":"0.0-3.0-0.54"},{"rt":3128.3600000315346,"correct":true,"stimulus":"stimulus/B14.jpg","key_press":66,"total":"exp","test_part":"train","correct_response":"B","trial_type":"categorize-image","trial_index":112,"time_elapsed":268374,"internal_node_id":"0.0-3.0-1.54"},{"rt":null,"stimulus":"<div style=\"font-size:60px;\">+</div>","key_press":null,"test_part":"fixation","trial_type":"html-keyboard-response","trial_index":113,"time_elapsed":269187,"internal_node_id":"0.0-3.0-0.55"},{"rt":1275.8399999584071,"correct":true,"stimulus":"stimulus/A5.jpg","key_press":65,"total":"exp","test_part":"train","correct_response":"A","trial_type":"categorize-image","trial_index":114,"time_elapsed":272475,"internal_node_id":"0.0-3.0-1.55"},{"rt":null,"stimulus":"<div style=\"font-size:60px;\">+</div>","key_press":null,"test_part":"fixation","trial_type":"html-keyboard-response","trial_index":115,"time_elapsed":273089,"internal_node_id":"0.0-3.0-0.56"},{"rt":846.1999999708496,"correct":true,"stimulus":"stimulus/B13.jpg","key_press":66,"total":"exp","test_part":"train","correct_response":"B","trial_type":"categorize-image","trial_index":116,"time_elapsed":275944,"internal_node_id":"0.0-3.0-1.56"},{"rt":null,"stimulus":"<div style=\"font-size:60px;\">+</div>","key_press":null,"test_part":"fixation","trial_type":"html-keyboard-response","trial_index":117,"time_elapsed":276546,"internal_node_id":"0.0-3.0-0.57"},{"rt":1134.989999991376,"correct":true,"stimulus":"stimulus/B12.jpg","key_press":66,"total":"exp","test_part":"train","correct_response":"B","trial_type":"categorize-image","trial_index":118,"time_elapsed":279690,"internal_node_id":"0.0-3.0-1.57"},{"rt":null,"stimulus":"<div style=\"font-size:60px;\">+</div>","key_press":null,"test_part":"fixation","trial_type":"html-keyboard-response","trial_index":119,"time_elapsed":280307,"internal_node_id":"0.0-3.0-0.58"},{"rt":1214.7150000091642,"correct":true,"stimulus":"stimulus/A3.jpg","key_press":65,"total":"exp","test_part":"train","correct_response":"A","trial_type":"categorize-image","trial_index":120,"time_elapsed":283531,"internal_node_id":"0.0-3.0-1.58"},{"rt":null,"stimulus":"<div style=\"font-size:60px;\">+</div>","key_press":null,"test_part":"fixation","trial_type":"html-keyboard-response","trial_index":121,"time_elapsed":284145,"internal_node_id":"0.0-3.0-0.59"},{"rt":1083.8649999932386,"correct":true,"stimulus":"stimulus/B10.jpg","key_press":66,"total":"exp","test_part":"train","correct_response":"B","trial_type":"categorize-image","trial_index":122,"time_elapsed":287239,"internal_node_id":"0.0-3.0-1.59"},{"rt":null,"stimulus":"<div style=\"font-size:60px;\">+</div>","key_press":null,"test_part":"fixation","trial_type":"html-keyboard-response","trial_index":123,"time_elapsed":288041,"internal_node_id":"0.0-3.0-0.60"},{"rt":839.2899999744259,"correct":true,"stimulus":"stimulus/A5.jpg","key_press":65,"total":"exp","test_part":"train","correct_response":"A","trial_type":"categorize-image","trial_index":124,"time_elapsed":290891,"internal_node_id":"0.0-3.0-1.60"},{"rt":null,"stimulus":"<div style=\"font-size:60px;\">+</div>","key_press":null,"test_part":"fixation","trial_type":"html-keyboard-response","trial_index":125,"time_elapsed":291507,"internal_node_id":"0.0-3.0-0.61"},{"rt":1502.455000008922,"correct":false,"stimulus":"stimulus/B14.jpg","key_press":65,"total":"exp","test_part":"train","correct_response":"B","trial_type":"categorize-image","trial_index":126,"time_elapsed":295018,"internal_node_id":"0.0-3.0-1.61"},{"rt":null,"stimulus":"<div style=\"font-size:60px;\">+</div>","key_press":null,"test_part":"fixation","trial_type":"html-keyboard-response","trial_index":127,"time_elapsed":295822,"internal_node_id":"0.0-3.0-0.62"},{"rt":1544.1400000127032,"correct":true,"stimulus":"stimulus/A3.jpg","key_press":65,"total":"exp","test_part":"train","correct_response":"A","trial_type":"categorize-image","trial_index":128,"time_elapsed":299383,"internal_node_id":"0.0-3.0-1.62"},{"rt":null,"stimulus":"<div style=\"font-size:60px;\">+</div>","key_press":null,"test_part":"fixation","trial_type":"html-keyboard-response","trial_index":129,"time_elapsed":299997,"internal_node_id":"0.0-3.0-0.63"},{"rt":2450.2450000145473,"correct":true,"stimulus":"stimulus/A7.jpg","key_press":65,"total":"exp","test_part":"train","correct_response":"A","trial_type":"categorize-image","trial_index":130,"time_elapsed":304459,"internal_node_id":"0.0-3.0-1.63"},{"rt":null,"stimulus":"<div style=\"font-size:60px;\">+</div>","key_press":null,"test_part":"fixation","trial_type":"html-keyboard-response","trial_index":131,"time_elapsed":305075,"internal_node_id":"0.0-3.0-0.64"},{"rt":1693.4600000386126,"correct":false,"stimulus":"stimulus/B11.jpg","key_press":65,"total":"exp","test_part":"train","correct_response":"B","trial_type":"categorize-image","trial_index":132,"time_elapsed":308777,"internal_node_id":"0.0-3.0-1.64"},{"rt":null,"stimulus":"<div style=\"font-size:60px;\">+</div>","key_press":null,"test_part":"fixation","trial_type":"html-keyboard-response","trial_index":133,"time_elapsed":309379,"internal_node_id":"0.0-3.0-0.65"},{"rt":720.2399999951012,"correct":true,"stimulus":"stimulus/A4.jpg","key_press":65,"total":"exp","test_part":"train","correct_response":"A","trial_type":"categorize-image","trial_index":134,"time_elapsed":312108,"internal_node_id":"0.0-3.0-1.65"},{"rt":null,"stimulus":"<div style=\"font-size:60px;\">+</div>","key_press":null,"test_part":"fixation","trial_type":"html-keyboard-response","trial_index":135,"time_elapsed":312913,"internal_node_id":"0.0-3.0-0.66"},{"rt":2072.5100000272505,"correct":false,"stimulus":"stimulus/A6.jpg","key_press":66,"total":"exp","test_part":"train","correct_response":"A","trial_type":"categorize-image","trial_index":136,"time_elapsed":317000,"internal_node_id":"0.0-3.0-1.66"},{"rt":null,"stimulus":"<div style=\"font-size:60px;\">+</div>","key_press":null,"test_part":"fixation","trial_type":"html-keyboard-response","trial_index":137,"time_elapsed":317805,"internal_node_id":"0.0-3.0-0.67"},{"rt":4167.274999956135,"correct":true,"stimulus":"stimulus/B13.jpg","key_press":66,"total":"exp","test_part":"train","correct_response":"B","trial_type":"categorize-image","trial_index":138,"time_elapsed":323988,"internal_node_id":"0.0-3.0-1.67"},{"rt":null,"stimulus":"<div style=\"font-size:60px;\">+</div>","key_press":null,"test_part":"fixation","trial_type":"html-keyboard-response","trial_index":139,"time_elapsed":324603,"internal_node_id":"0.0-3.0-0.68"},{"rt":1269.4350000238046,"correct":true,"stimulus":"stimulus/B10.jpg","key_press":66,"total":"exp","test_part":"train","correct_response":"B","trial_type":"categorize-image","trial_index":140,"time_elapsed":327885,"internal_node_id":"0.0-3.0-1.68"},{"rt":null,"stimulus":"<div style=\"font-size:60px;\">+</div>","key_press":null,"test_part":"fixation","trial_type":"html-keyboard-response","trial_index":141,"time_elapsed":328499,"internal_node_id":"0.0-3.0-0.69"},{"rt":2068.7850000103936,"correct":false,"stimulus":"stimulus/B12.jpg","key_press":65,"total":"exp","test_part":"train","correct_response":"B","trial_type":"categorize-image","trial_index":142,"time_elapsed":332579,"internal_node_id":"0.0-3.0-1.69"},{"rt":null,"stimulus":"<div style=\"font-size:60px;\">+</div>","key_press":null,"test_part":"fixation","trial_type":"html-keyboard-response","trial_index":143,"time_elapsed":333381,"internal_node_id":"0.0-3.0-0.70"},{"rt":809.8800000152551,"correct":true,"stimulus":"stimulus/A4.jpg","key_press":65,"total":"exp","test_part":"train","correct_response":"A","trial_type":"categorize-image","trial_index":144,"time_elapsed":336211,"internal_node_id":"0.0-3.0-1.70"},{"rt":null,"stimulus":"<div style=\"font-size:60px;\">+</div>","key_press":null,"test_part":"fixation","trial_type":"html-keyboard-response","trial_index":145,"time_elapsed":337019,"internal_node_id":"0.0-3.0-0.71"},{"rt":7318.744999996852,"correct":true,"stimulus":"stimulus/B12.jpg","key_press":66,"total":"exp","test_part":"train","correct_response":"B","trial_type":"categorize-image","trial_index":146,"time_elapsed":346350,"internal_node_id":"0.0-3.0-1.71"},{"rt":null,"stimulus":"<div style=\"font-size:60px;\">+</div>","key_press":null,"test_part":"fixation","trial_type":"html-keyboard-response","trial_index":147,"time_elapsed":347153,"internal_node_id":"0.0-3.0-0.72"},{"rt":1502.9300000169314,"correct":false,"stimulus":"stimulus/B10.jpg","key_press":65,"total":"exp","test_part":"train","correct_response":"B","trial_type":"categorize-image","trial_index":148,"time_elapsed":350676,"internal_node_id":"0.0-3.0-1.72"},{"rt":null,"stimulus":"<div style=\"font-size:60px;\">+</div>","key_press":null,"test_part":"fixation","trial_type":"html-keyboard-response","trial_index":149,"time_elapsed":351289,"internal_node_id":"0.0-3.0-0.73"},{"rt":266.330000013113,"correct":false,"stimulus":"stimulus/B13.jpg","key_press":65,"total":"exp","test_part":"train","correct_response":"B","trial_type":"categorize-image","trial_index":150,"time_elapsed":353575,"internal_node_id":"0.0-3.0-1.73"},{"rt":null,"stimulus":"<div style=\"font-size:60px;\">+</div>","key_press":null,"test_part":"fixation","trial_type":"html-keyboard-response","trial_index":151,"time_elapsed":354189,"internal_node_id":"0.0-3.0-0.74"},{"rt":159.05999997630715,"correct":false,"stimulus":"stimulus/A7.jpg","key_press":66,"total":"exp","test_part":"train","correct_response":"A","trial_type":"categorize-image","trial_index":152,"time_elapsed":356353,"internal_node_id":"0.0-3.0-1.74"},{"rt":null,"stimulus":"<div style=\"font-size:60px;\">+</div>","key_press":null,"test_part":"fixation","trial_type":"html-keyboard-response","trial_index":153,"time_elapsed":356967,"internal_node_id":"0.0-3.0-0.75"},{"rt":202.6099999784492,"correct":false,"stimulus":"stimulus/A5.jpg","key_press":66,"total":"exp","test_part":"train","correct_response":"A","trial_type":"categorize-image","trial_index":154,"time_elapsed":359186,"internal_node_id":"0.0-3.0-1.75"},{"rt":null,"stimulus":"<div style=\"font-size:60px;\">+</div>","key_press":null,"test_part":"fixation","trial_type":"html-keyboard-response","trial_index":155,"time_elapsed":359988,"internal_node_id":"0.0-3.0-0.76"},{"rt":313.2800000021234,"correct":false,"stimulus":"stimulus/B14.jpg","key_press":65,"total":"exp","test_part":"train","correct_response":"B","trial_type":"categorize-image","trial_index":156,"time_elapsed":362316,"internal_node_id":"0.0-3.0-1.76"},{"rt":null,"stimulus":"<div style=\"font-size:60px;\">+</div>","key_press":null,"test_part":"fixation","trial_type":"html-keyboard-response","trial_index":157,"time_elapsed":363125,"internal_node_id":"0.0-3.0-0.77"},{"rt":1130.3749999497086,"correct":true,"stimulus":"stimulus/A3.jpg","key_press":65,"total":"exp","test_part":"train","correct_response":"A","trial_type":"categorize-image","trial_index":158,"time_elapsed":366263,"internal_node_id":"0.0-3.0-1.77"},{"rt":null,"stimulus":"<div style=\"font-size:60px;\">+</div>","key_press":null,"test_part":"fixation","trial_type":"html-keyboard-response","trial_index":159,"time_elapsed":366877,"internal_node_id":"0.0-3.0-0.78"},{"rt":2894.659999990836,"correct":false,"stimulus":"stimulus/B11.jpg","key_press":65,"total":"exp","test_part":"train","correct_response":"B","trial_type":"categorize-image","trial_index":160,"time_elapsed":371783,"internal_node_id":"0.0-3.0-1.78"},{"rt":null,"stimulus":"<div style=\"font-size:60px;\">+</div>","key_press":null,"test_part":"fixation","trial_type":"html-keyboard-response","trial_index":161,"time_elapsed":372397,"internal_node_id":"0.0-3.0-0.79"},{"rt":962.4150000163354,"correct":true,"stimulus":"stimulus/A6.jpg","key_press":65,"total":"exp","test_part":"train","correct_response":"A","trial_type":"categorize-image","trial_index":162,"time_elapsed":375371,"internal_node_id":"0.0-3.0-1.79"},{"rt":null,"stimulus":"<div style=\"font-size:60px;\">+</div>","key_press":null,"test_part":"fixation","trial_type":"html-keyboard-response","trial_index":163,"time_elapsed":375987,"internal_node_id":"0.0-3.0-0.80"},{"rt":2285.0300000282004,"correct":false,"stimulus":"stimulus/B12.jpg","key_press":65,"total":"exp","test_part":"train","correct_response":"B","trial_type":"categorize-image","trial_index":164,"time_elapsed":380282,"internal_node_id":"0.0-3.0-1.80"},{"rt":null,"stimulus":"<div style=\"font-size:60px;\">+</div>","key_press":null,"test_part":"fixation","trial_type":"html-keyboard-response","trial_index":165,"time_elapsed":381085,"internal_node_id":"0.0-3.0-0.81"},{"rt":1087.4799999874085,"correct":true,"stimulus":"stimulus/B11.jpg","key_press":66,"total":"exp","test_part":"train","correct_response":"B","trial_type":"categorize-image","trial_index":166,"time_elapsed":384183,"internal_node_id":"0.0-3.0-1.81"},{"rt":null,"stimulus":"<div style=\"font-size:60px;\">+</div>","key_press":null,"test_part":"fixation","trial_type":"html-keyboard-response","trial_index":167,"time_elapsed":384798,"internal_node_id":"0.0-3.0-0.82"},{"rt":122.83500004559755,"correct":true,"stimulus":"stimulus/B14.jpg","key_press":66,"total":"exp","test_part":"train","correct_response":"B","trial_type":"categorize-image","trial_index":168,"time_elapsed":386928,"internal_node_id":"0.0-3.0-1.82"},{"rt":null,"stimulus":"<div style=\"font-size:60px;\">+</div>","key_press":null,"test_part":"fixation","trial_type":"html-keyboard-response","trial_index":169,"time_elapsed":387731,"internal_node_id":"0.0-3.0-0.83"},{"rt":640.8599999849685,"correct":false,"stimulus":"stimulus/A6.jpg","key_press":66,"total":"exp","test_part":"train","correct_response":"A","trial_type":"categorize-image","trial_index":170,"time_elapsed":390389,"internal_node_id":"0.0-3.0-1.83"},{"rt":null,"stimulus":"<div style=\"font-size:60px;\">+</div>","key_press":null,"test_part":"fixation","trial_type":"html-keyboard-response","trial_index":171,"time_elapsed":391194,"internal_node_id":"0.0-3.0-0.84"},{"rt":676.2999999918975,"correct":true,"stimulus":"stimulus/A5.jpg","key_press":65,"total":"exp","test_part":"train","correct_response":"A","trial_type":"categorize-image","trial_index":172,"time_elapsed":393877,"internal_node_id":"0.0-3.0-1.84"},{"rt":null,"stimulus":"<div style=\"font-size:60px;\">+</div>","key_press":null,"test_part":"fixation","trial_type":"html-keyboard-response","trial_index":173,"time_elapsed":394492,"internal_node_id":"0.0-3.0-0.85"},{"rt":1340.3500000131316,"correct":false,"stimulus":"stimulus/A4.jpg","key_press":66,"total":"exp","test_part":"train","correct_response":"A","trial_type":"categorize-image","trial_index":174,"time_elapsed":397841,"internal_node_id":"0.0-3.0-1.85"},{"rt":null,"stimulus":"<div style=\"font-size:60px;\">+</div>","key_press":null,"test_part":"fixation","trial_type":"html-keyboard-response","trial_index":175,"time_elapsed":398443,"internal_node_id":"0.0-3.0-0.86"},{"rt":132530.8350000414,"correct":true,"stimulus":"stimulus/A7.jpg","key_press":65,"total":"exp","test_part":"train","correct_response":"A","trial_type":"categorize-image","trial_index":176,"time_elapsed":532984,"internal_node_id":"0.0-3.0-1.86"},{"rt":null,"stimulus":"<div style=\"font-size:60px;\">+</div>","key_press":null,"test_part":"fixation","trial_type":"html-keyboard-response","trial_index":177,"time_elapsed":533598,"internal_node_id":"0.0-3.0-0.87"},{"rt":1002.7500000433065,"correct":true,"stimulus":"stimulus/B13.jpg","key_press":66,"total":"exp","test_part":"train","correct_response":"B","trial_type":"categorize-image","trial_index":178,"time_elapsed":536623,"internal_node_id":"0.0-3.0-1.87"},{"rt":null,"stimulus":"<div style=\"font-size:60px;\">+</div>","key_press":null,"test_part":"fixation","trial_type":"html-keyboard-response","trial_index":179,"time_elapsed":537430,"internal_node_id":"0.0-3.0-0.88"},{"rt":654.3050000327639,"correct":false,"stimulus":"stimulus/B10.jpg","key_press":65,"total":"exp","test_part":"train","correct_response":"B","trial_type":"categorize-image","trial_index":180,"time_elapsed":540092,"internal_node_id":"0.0-3.0-1.88"},{"rt":null,"stimulus":"<div style=\"font-size:60px;\">+</div>","key_press":null,"test_part":"fixation","trial_type":"html-keyboard-response","trial_index":181,"time_elapsed":540897,"internal_node_id":"0.0-3.0-0.89"},{"rt":89.525000017602,"correct":false,"stimulus":"stimulus/A3.jpg","key_press":66,"total":"exp","test_part":"train","correct_response":"A","trial_type":"categorize-image","trial_index":182,"time_elapsed":543002,"internal_node_id":"0.0-3.0-1.89"},{"rt":null,"stimulus":"<div style=\"font-size:60px;\">+</div>","key_press":null,"test_part":"fixation","trial_type":"html-keyboard-response","trial_index":183,"time_elapsed":543607,"internal_node_id":"0.0-3.0-0.90"},{"rt":78684.3649999937,"correct":true,"stimulus":"stimulus/B10.jpg","key_press":66,"total":"exp","test_part":"train","correct_response":"B","trial_type":"categorize-image","trial_index":184,"time_elapsed":624308,"internal_node_id":"0.0-3.0-1.90"},{"rt":null,"stimulus":"<div style=\"font-size:60px;\">+</div>","key_press":null,"test_part":"fixation","trial_type":"html-keyboard-response","trial_index":185,"time_elapsed":624922,"internal_node_id":"0.0-3.0-0.91"},{"rt":780.7499999762513,"correct":true,"stimulus":"stimulus/A3.jpg","key_press":65,"total":"exp","test_part":"train","correct_response":"A","trial_type":"categorize-image","trial_index":186,"time_elapsed":627714,"internal_node_id":"0.0-3.0-1.91"},{"rt":null,"stimulus":"<div style=\"font-size:60px;\">+</div>","key_press":null,"test_part":"fixation","trial_type":"html-keyboard-response","trial_index":187,"time_elapsed":628328,"internal_node_id":"0.0-3.0-0.92"},{"rt":636.0400000121444,"correct":true,"stimulus":"stimulus/B13.jpg","key_press":66,"total":"exp","test_part":"train","correct_response":"B","trial_type":"categorize-image","trial_index":188,"time_elapsed":630976,"internal_node_id":"0.0-3.0-1.92"},{"rt":null,"stimulus":"<div style=\"font-size:60px;\">+</div>","key_press":null,"test_part":"fixation","trial_type":"html-keyboard-response","trial_index":189,"time_elapsed":631590,"internal_node_id":"0.0-3.0-0.93"},{"rt":13.670000014826655,"correct":true,"stimulus":"stimulus/A4.jpg","key_press":65,"total":"exp","test_part":"train","correct_response":"A","trial_type":"categorize-image","trial_index":190,"time_elapsed":633625,"internal_node_id":"0.0-3.0-1.93"},{"rt":null,"stimulus":"<div style=\"font-size:60px;\">+</div>","key_press":null,"test_part":"fixation","trial_type":"html-keyboard-response","trial_index":191,"time_elapsed":634429,"internal_node_id":"0.0-3.0-0.94"},{"rt":3024.855000025127,"correct":false,"stimulus":"stimulus/B14.jpg","key_press":65,"total":"exp","test_part":"train","correct_response":"B","trial_type":"categorize-image","trial_index":192,"time_elapsed":639466,"internal_node_id":"0.0-3.0-1.94"},{"rt":null,"stimulus":"<div style=\"font-size:60px;\">+</div>","key_press":null,"test_part":"fixation","trial_type":"html-keyboard-response","trial_index":193,"time_elapsed":640275,"internal_node_id":"0.0-3.0-0.95"},{"rt":14683.729999989737,"correct":true,"stimulus":"stimulus/B11.jpg","key_press":66,"total":"exp","test_part":"train","correct_response":"B","trial_type":"categorize-image","trial_index":194,"time_elapsed":656967,"internal_node_id":"0.0-3.0-1.95"},{"rt":null,"stimulus":"<div style=\"font-size:60px;\">+</div>","key_press":null,"test_part":"fixation","trial_type":"html-keyboard-response","trial_index":195,"time_elapsed":657774,"internal_node_id":"0.0-3.0-0.96"},{"rt":532.405000005383,"correct":true,"stimulus":"stimulus/A5.jpg","key_press":65,"total":"exp","test_part":"train","correct_response":"A","trial_type":"categorize-image","trial_index":196,"time_elapsed":660314,"internal_node_id":"0.0-3.0-1.96"},{"rt":null,"stimulus":"<div style=\"font-size:60px;\">+</div>","key_press":null,"test_part":"fixation","trial_type":"html-keyboard-response","trial_index":197,"time_elapsed":660927,"internal_node_id":"0.0-3.0-0.97"},{"rt":764.5400000037625,"correct":true,"stimulus":"stimulus/A7.jpg","key_press":65,"total":"exp","test_part":"train","correct_response":"A","trial_type":"categorize-image","trial_index":198,"time_elapsed":663712,"internal_node_id":"0.0-3.0-1.97"},{"rt":null,"stimulus":"<div style=\"font-size:60px;\">+</div>","key_press":null,"test_part":"fixation","trial_type":"html-keyboard-response","trial_index":199,"time_elapsed":664518,"internal_node_id":"0.0-3.0-0.98"},{"rt":739.1549999592826,"correct":true,"stimulus":"stimulus/A6.jpg","key_press":65,"total":"exp","test_part":"train","correct_response":"A","trial_type":"categorize-image","trial_index":200,"time_elapsed":667263,"internal_node_id":"0.0-3.0-1.98"},{"rt":null,"stimulus":"<div style=\"font-size:60px;\">+</div>","key_press":null,"test_part":"fixation","trial_type":"html-keyboard-response","trial_index":201,"time_elapsed":668068,"internal_node_id":"0.0-3.0-0.99"},{"rt":481.0649999999441,"correct":true,"stimulus":"stimulus/B12.jpg","key_press":66,"total":"exp","test_part":"train","correct_response":"B","trial_type":"categorize-image","trial_index":202,"time_elapsed":670563,"internal_node_id":"0.0-3.0-1.99"},{"rt":null,"stimulus":"<div style=\"font-size:60px;\">+</div>","key_press":null,"test_part":"fixation","trial_type":"html-keyboard-response","trial_index":203,"time_elapsed":671369,"internal_node_id":"0.0-3.0-0.100"},{"rt":1160.3350000223145,"correct":true,"stimulus":"stimulus/B13.jpg","key_press":66,"total":"exp","test_part":"train","correct_response":"B","trial_type":"categorize-image","trial_index":204,"time_elapsed":674548,"internal_node_id":"0.0-3.0-1.100"},{"rt":null,"stimulus":"<div style=\"font-size:60px;\">+</div>","key_press":null,"test_part":"fixation","trial_type":"html-keyboard-response","trial_index":205,"time_elapsed":675161,"internal_node_id":"0.0-3.0-0.101"},{"rt":1748.0050000012852,"correct":true,"stimulus":"stimulus/A7.jpg","key_press":65,"total":"exp","test_part":"train","correct_response":"A","trial_type":"categorize-image","trial_index":206,"time_elapsed":678919,"internal_node_id":"0.0-3.0-1.101"},{"rt":null,"stimulus":"<div style=\"font-size:60px;\">+</div>","key_press":null,"test_part":"fixation","trial_type":"html-keyboard-response","trial_index":207,"time_elapsed":679531,"internal_node_id":"0.0-3.0-0.102"},{"rt":1102.1900000050664,"correct":true,"stimulus":"stimulus/A3.jpg","key_press":65,"total":"exp","test_part":"train","correct_response":"A","trial_type":"categorize-image","trial_index":208,"time_elapsed":682648,"internal_node_id":"0.0-3.0-1.102"},{"rt":null,"stimulus":"<div style=\"font-size:60px;\">+</div>","key_press":null,"test_part":"fixation","trial_type":"html-keyboard-response","trial_index":209,"time_elapsed":683454,"internal_node_id":"0.0-3.0-0.103"},{"rt":1528.3199999830686,"correct":true,"stimulus":"stimulus/B12.jpg","key_press":66,"total":"exp","test_part":"train","correct_response":"B","trial_type":"categorize-image","trial_index":210,"time_elapsed":687003,"internal_node_id":"0.0-3.0-1.103"},{"rt":null,"stimulus":"<div style=\"font-size:60px;\">+</div>","key_press":null,"test_part":"fixation","trial_type":"html-keyboard-response","trial_index":211,"time_elapsed":687819,"internal_node_id":"0.0-3.0-0.104"},{"rt":1009.6400000038557,"correct":true,"stimulus":"stimulus/A6.jpg","key_press":65,"total":"exp","test_part":"train","correct_response":"A","trial_type":"categorize-image","trial_index":212,"time_elapsed":690845,"internal_node_id":"0.0-3.0-1.104"},{"rt":null,"stimulus":"<div style=\"font-size:60px;\">+</div>","key_press":null,"test_part":"fixation","trial_type":"html-keyboard-response","trial_index":213,"time_elapsed":691657,"internal_node_id":"0.0-3.0-0.105"},{"rt":1347.7249999996275,"correct":true,"stimulus":"stimulus/A4.jpg","key_press":65,"total":"exp","test_part":"train","correct_response":"A","trial_type":"categorize-image","trial_index":214,"time_elapsed":695016,"internal_node_id":"0.0-3.0-1.105"},{"rt":null,"stimulus":"<div style=\"font-size:60px;\">+</div>","key_press":null,"test_part":"fixation","trial_type":"html-keyboard-response","trial_index":215,"time_elapsed":695830,"internal_node_id":"0.0-3.0-0.106"},{"rt":912.3450000188313,"correct":true,"stimulus":"stimulus/A5.jpg","key_press":65,"total":"exp","test_part":"train","correct_response":"A","trial_type":"categorize-image","trial_index":216,"time_elapsed":698753,"internal_node_id":"0.0-3.0-1.106"},{"rt":null,"stimulus":"<div style=\"font-size:60px;\">+</div>","key_press":null,"test_part":"fixation","trial_type":"html-keyboard-response","trial_index":217,"time_elapsed":699355,"internal_node_id":"0.0-3.0-0.107"},{"rt":1126.064999960363,"correct":true,"stimulus":"stimulus/B11.jpg","key_press":66,"total":"exp","test_part":"train","correct_response":"B","trial_type":"categorize-image","trial_index":218,"time_elapsed":702501,"internal_node_id":"0.0-3.0-1.107"},{"rt":null,"stimulus":"<div style=\"font-size:60px;\">+</div>","key_press":null,"test_part":"fixation","trial_type":"html-keyboard-response","trial_index":219,"time_elapsed":703103,"internal_node_id":"0.0-3.0-0.108"},{"rt":1122.4449999863282,"correct":true,"stimulus":"stimulus/B14.jpg","key_press":66,"total":"exp","test_part":"train","correct_response":"B","trial_type":"categorize-image","trial_index":220,"time_elapsed":706238,"internal_node_id":"0.0-3.0-1.108"},{"rt":null,"stimulus":"<div style=\"font-size:60px;\">+</div>","key_press":null,"test_part":"fixation","trial_type":"html-keyboard-response","trial_index":221,"time_elapsed":706850,"internal_node_id":"0.0-3.0-0.109"},{"rt":1674.3500000447966,"correct":false,"stimulus":"stimulus/B10.jpg","key_press":65,"total":"exp","test_part":"train","correct_response":"B","trial_type":"categorize-image","trial_index":222,"time_elapsed":710536,"internal_node_id":"0.0-3.0-1.109"},{"rt":null,"stimulus":"<div style=\"font-size:60px;\">+</div>","key_press":null,"test_part":"fixation","trial_type":"html-keyboard-response","trial_index":223,"time_elapsed":711338,"internal_node_id":"0.0-3.0-0.110"},{"rt":2067.459999991115,"correct":false,"stimulus":"stimulus/B13.jpg","key_press":65,"total":"exp","test_part":"train","correct_response":"B","trial_type":"categorize-image","trial_index":224,"time_elapsed":715413,"internal_node_id":"0.0-3.0-1.110"},{"rt":null,"stimulus":"<div style=\"font-size:60px;\">+</div>","key_press":null,"test_part":"fixation","trial_type":"html-keyboard-response","trial_index":225,"time_elapsed":716217,"internal_node_id":"0.0-3.0-0.111"},{"rt":1908.5549999726936,"correct":true,"stimulus":"stimulus/B11.jpg","key_press":66,"total":"exp","test_part":"train","correct_response":"B","trial_type":"categorize-image","trial_index":226,"time_elapsed":720146,"internal_node_id":"0.0-3.0-1.111"},{"rt":null,"stimulus":"<div style=\"font-size:60px;\">+</div>","key_press":null,"test_part":"fixation","trial_type":"html-keyboard-response","trial_index":227,"time_elapsed":720762,"internal_node_id":"0.0-3.0-0.112"},{"rt":1587.0550000108778,"correct":true,"stimulus":"stimulus/A4.jpg","key_press":65,"total":"exp","test_part":"train","correct_response":"A","trial_type":"categorize-image","trial_index":228,"time_elapsed":724367,"internal_node_id":"0.0-3.0-1.112"},{"rt":null,"stimulus":"<div style=\"font-size:60px;\">+</div>","key_press":null,"test_part":"fixation","trial_type":"html-keyboard-response","trial_index":229,"time_elapsed":725170,"internal_node_id":"0.0-3.0-0.113"},{"rt":2356.130000029225,"correct":false,"stimulus":"stimulus/B12.jpg","key_press":65,"total":"exp","test_part":"train","correct_response":"B","trial_type":"categorize-image","trial_index":230,"time_elapsed":729542,"internal_node_id":"0.0-3.0-1.113"},{"rt":null,"stimulus":"<div style=\"font-size:60px;\">+</div>","key_press":null,"test_part":"fixation","trial_type":"html-keyboard-response","trial_index":231,"time_elapsed":730144,"internal_node_id":"0.0-3.0-0.114"},{"rt":2880.5699999793433,"correct":true,"stimulus":"stimulus/A6.jpg","key_press":65,"total":"exp","test_part":"train","correct_response":"A","trial_type":"categorize-image","trial_index":232,"time_elapsed":735046,"internal_node_id":"0.0-3.0-1.114"},{"rt":null,"stimulus":"<div style=\"font-size:60px;\">+</div>","key_press":null,"test_part":"fixation","trial_type":"html-keyboard-response","trial_index":233,"time_elapsed":735661,"internal_node_id":"0.0-3.0-0.115"},{"rt":1013.890000001993,"correct":false,"stimulus":"stimulus/A3.jpg","key_press":66,"total":"exp","test_part":"train","correct_response":"A","trial_type":"categorize-image","trial_index":234,"time_elapsed":738688,"internal_node_id":"0.0-3.0-1.115"},{"rt":null,"stimulus":"<div style=\"font-size:60px;\">+</div>","key_press":null,"test_part":"fixation","trial_type":"html-keyboard-response","trial_index":235,"time_elapsed":739302,"internal_node_id":"0.0-3.0-0.116"},{"rt":556.2200000276789,"correct":false,"stimulus":"stimulus/B14.jpg","key_press":65,"total":"exp","test_part":"train","correct_response":"B","trial_type":"categorize-image","trial_index":236,"time_elapsed":741867,"internal_node_id":"0.0-3.0-1.116"},{"rt":null,"stimulus":"<div style=\"font-size:60px;\">+</div>","key_press":null,"test_part":"fixation","trial_type":"html-keyboard-response","trial_index":237,"time_elapsed":742480,"internal_node_id":"0.0-3.0-0.117"},{"rt":387.2550000087358,"correct":false,"stimulus":"stimulus/A7.jpg","key_press":66,"total":"exp","test_part":"train","correct_response":"A","trial_type":"categorize-image","trial_index":238,"time_elapsed":744884,"internal_node_id":"0.0-3.0-1.117"},{"rt":null,"stimulus":"<div style=\"font-size:60px;\">+</div>","key_press":null,"test_part":"fixation","trial_type":"html-keyboard-response","trial_index":239,"time_elapsed":745485,"internal_node_id":"0.0-3.0-0.118"},{"rt":5.315000016707927,"correct":false,"stimulus":"stimulus/A5.jpg","key_press":66,"total":"exp","test_part":"train","correct_response":"A","trial_type":"categorize-image","trial_index":240,"time_elapsed":747496,"internal_node_id":"0.0-3.0-1.118"},{"rt":null,"stimulus":"<div style=\"font-size:60px;\">+</div>","key_press":null,"test_part":"fixation","trial_type":"html-keyboard-response","trial_index":241,"time_elapsed":748300,"internal_node_id":"0.0-3.0-0.119"},{"rt":56.2449999852106,"correct":true,"stimulus":"stimulus/B10.jpg","key_press":66,"total":"exp","test_part":"train","correct_response":"B","trial_type":"categorize-image","trial_index":242,"time_elapsed":750371,"internal_node_id":"0.0-3.0-1.119"},{"rt":null,"stimulus":"<div style=\"font-size:60px;\">+</div>","key_press":null,"test_part":"fixation","trial_type":"html-keyboard-response","trial_index":243,"time_elapsed":751178,"internal_node_id":"0.0-3.0-0.120"},{"rt":1204.5449999859557,"correct":false,"stimulus":"stimulus/A4.jpg","key_press":66,"total":"exp","test_part":"train","correct_response":"A","trial_type":"categorize-image","trial_index":244,"time_elapsed":754394,"internal_node_id":"0.0-3.0-1.120"},{"rt":null,"stimulus":"<div style=\"font-size:60px;\">+</div>","key_press":null,"test_part":"fixation","trial_type":"html-keyboard-response","trial_index":245,"time_elapsed":755010,"internal_node_id":"0.0-3.0-0.121"},{"rt":92.76500000851229,"correct":true,"stimulus":"stimulus/B14.jpg","key_press":66,"total":"exp","test_part":"train","correct_response":"B","trial_type":"categorize-image","trial_index":246,"time_elapsed":757122,"internal_node_id":"0.0-3.0-1.121"},{"rt":null,"stimulus":"<div style=\"font-size:60px;\">+</div>","key_press":null,"test_part":"fixation","trial_type":"html-keyboard-response","trial_index":247,"time_elapsed":757924,"internal_node_id":"0.0-3.0-0.122"},{"rt":501.4599999994971,"correct":false,"stimulus":"stimulus/A6.jpg","key_press":66,"total":"exp","test_part":"train","correct_response":"A","trial_type":"categorize-image","trial_index":248,"time_elapsed":760436,"internal_node_id":"0.0-3.0-1.122"},{"rt":null,"stimulus":"<div style=\"font-size:60px;\">+</div>","key_press":null,"test_part":"fixation","trial_type":"html-keyboard-response","trial_index":249,"time_elapsed":761240,"internal_node_id":"0.0-3.0-0.123"},{"rt":495.9099999978207,"correct":false,"stimulus":"stimulus/B10.jpg","key_press":65,"total":"exp","test_part":"train","correct_response":"B","trial_type":"categorize-image","trial_index":250,"time_elapsed":763746,"internal_node_id":"0.0-3.0-1.123"},{"rt":null,"stimulus":"<div style=\"font-size:60px;\">+</div>","key_press":null,"test_part":"fixation","trial_type":"html-keyboard-response","trial_index":251,"time_elapsed":764361,"internal_node_id":"0.0-3.0-0.124"},{"rt":220.10999999474734,"correct":false,"stimulus":"stimulus/B13.jpg","key_press":65,"total":"exp","test_part":"train","correct_response":"B","trial_type":"categorize-image","trial_index":252,"time_elapsed":766598,"internal_node_id":"0.0-3.0-1.124"},{"rt":null,"stimulus":"<div style=\"font-size:60px;\">+</div>","key_press":null,"test_part":"fixation","trial_type":"html-keyboard-response","trial_index":253,"time_elapsed":767212,"internal_node_id":"0.0-3.0-0.125"},{"rt":0.6350000039674342,"correct":true,"stimulus":"stimulus/B11.jpg","key_press":66,"total":"exp","test_part":"train","correct_response":"B","trial_type":"categorize-image","trial_index":254,"time_elapsed":769231,"internal_node_id":"0.0-3.0-1.125"},{"rt":null,"stimulus":"<div style=\"font-size:60px;\">+</div>","key_press":null,"test_part":"fixation","trial_type":"html-keyboard-response","trial_index":255,"time_elapsed":769837,"internal_node_id":"0.0-3.0-0.126"},{"rt":41.13999998662621,"correct":false,"stimulus":"stimulus/A3.jpg","key_press":66,"total":"exp","test_part":"train","correct_response":"A","trial_type":"categorize-image","trial_index":256,"time_elapsed":771890,"internal_node_id":"0.0-3.0-1.126"},{"rt":null,"stimulus":"<div style=\"font-size:60px;\">+</div>","key_press":null,"test_part":"fixation","trial_type":"html-keyboard-response","trial_index":257,"time_elapsed":772504,"internal_node_id":"0.0-3.0-0.127"},{"rt":113.6749999714084,"correct":false,"stimulus":"stimulus/B12.jpg","key_press":65,"total":"exp","test_part":"train","correct_response":"B","trial_type":"categorize-image","trial_index":258,"time_elapsed":774634,"internal_node_id":"0.0-3.0-1.127"},{"rt":null,"stimulus":"<div style=\"font-size:60px;\">+</div>","key_press":null,"test_part":"fixation","trial_type":"html-keyboard-response","trial_index":259,"time_elapsed":775436,"internal_node_id":"0.0-3.0-0.128"},{"rt":210.80000000074506,"correct":false,"stimulus":"stimulus/A5.jpg","key_press":66,"total":"exp","test_part":"train","correct_response":"A","trial_type":"categorize-image","trial_index":260,"time_elapsed":777658,"internal_node_id":"0.0-3.0-1.128"},{"rt":null,"stimulus":"<div style=\"font-size:60px;\">+</div>","key_press":null,"test_part":"fixation","trial_type":"html-keyboard-response","trial_index":261,"time_elapsed":778474,"internal_node_id":"0.0-3.0-0.129"},{"rt":69.12000000011176,"correct":false,"stimulus":"stimulus/A7.jpg","key_press":66,"total":"exp","test_part":"train","correct_response":"A","trial_type":"categorize-image","trial_index":262,"time_elapsed":780550,"internal_node_id":"0.0-3.0-1.129"},{"rt":null,"stimulus":"<div style=\"font-size:60px;\">+</div>","key_press":null,"test_part":"fixation","trial_type":"html-keyboard-response","trial_index":263,"time_elapsed":781356,"internal_node_id":"0.0-3.0-0.130"},{"rt":65.34000003011897,"correct":true,"stimulus":"stimulus/B10.jpg","key_press":66,"total":"exp","test_part":"train","correct_response":"B","trial_type":"categorize-image","trial_index":264,"time_elapsed":783428,"internal_node_id":"0.0-3.0-1.130"},{"rt":null,"stimulus":"<div style=\"font-size:60px;\">+</div>","key_press":null,"test_part":"fixation","trial_type":"html-keyboard-response","trial_index":265,"time_elapsed":784043,"internal_node_id":"0.0-3.0-0.131"},{"rt":219.37499998603016,"correct":false,"stimulus":"stimulus/A3.jpg","key_press":66,"total":"exp","test_part":"train","correct_response":"A","trial_type":"categorize-image","trial_index":266,"time_elapsed":786280,"internal_node_id":"0.0-3.0-1.131"},{"rt":null,"stimulus":"<div style=\"font-size:60px;\">+</div>","key_press":null,"test_part":"fixation","trial_type":"html-keyboard-response","trial_index":267,"time_elapsed":787096,"internal_node_id":"0.0-3.0-0.132"},{"rt":30.644999991636723,"correct":false,"stimulus":"stimulus/A7.jpg","key_press":66,"total":"exp","test_part":"train","correct_response":"A","trial_type":"categorize-image","trial_index":268,"time_elapsed":789142,"internal_node_id":"0.0-3.0-1.132"},{"rt":null,"stimulus":"<div style=\"font-size:60px;\">+</div>","key_press":null,"test_part":"fixation","trial_type":"html-keyboard-response","trial_index":269,"time_elapsed":789752,"internal_node_id":"0.0-3.0-0.133"},{"rt":5.049999977927655,"correct":true,"stimulus":"stimulus/B11.jpg","key_press":66,"total":"exp","test_part":"train","correct_response":"B","trial_type":"categorize-image","trial_index":270,"time_elapsed":791769,"internal_node_id":"0.0-3.0-1.133"},{"rt":null,"stimulus":"<div style=\"font-size:60px;\">+</div>","key_press":null,"test_part":"fixation","trial_type":"html-keyboard-response","trial_index":271,"time_elapsed":792571,"internal_node_id":"0.0-3.0-0.134"},{"rt":20.504999964032322,"correct":true,"stimulus":"stimulus/A6.jpg","key_press":65,"total":"exp","test_part":"train","correct_response":"A","trial_type":"categorize-image","trial_index":272,"time_elapsed":794600,"internal_node_id":"0.0-3.0-1.134"},{"rt":null,"stimulus":"<div style=\"font-size:60px;\">+</div>","key_press":null,"test_part":"fixation","trial_type":"html-keyboard-response","trial_index":273,"time_elapsed":795403,"internal_node_id":"0.0-3.0-0.135"},{"rt":131.9000000366941,"correct":false,"stimulus":"stimulus/B13.jpg","key_press":65,"total":"exp","test_part":"train","correct_response":"B","trial_type":"categorize-image","trial_index":274,"time_elapsed":797539,"internal_node_id":"0.0-3.0-1.135"},{"rt":null,"stimulus":"<div style=\"font-size:60px;\">+</div>","key_press":null,"test_part":"fixation","trial_type":"html-keyboard-response","trial_index":275,"time_elapsed":798342,"internal_node_id":"0.0-3.0-0.136"},{"rt":103.14500000094995,"correct":true,"stimulus":"stimulus/A4.jpg","key_press":65,"total":"exp","test_part":"train","correct_response":"A","trial_type":"categorize-image","trial_index":276,"time_elapsed":800465,"internal_node_id":"0.0-3.0-1.136"},{"rt":null,"stimulus":"<div style=\"font-size:60px;\">+</div>","key_press":null,"test_part":"fixation","trial_type":"html-keyboard-response","trial_index":277,"time_elapsed":801075,"internal_node_id":"0.0-3.0-0.137"},{"rt":254.37999999849126,"correct":true,"stimulus":"stimulus/B14.jpg","key_press":66,"total":"exp","test_part":"train","correct_response":"B","trial_type":"categorize-image","trial_index":278,"time_elapsed":803344,"internal_node_id":"0.0-3.0-1.137"},{"rt":null,"stimulus":"<div style=\"font-size:60px;\">+</div>","key_press":null,"test_part":"fixation","trial_type":"html-keyboard-response","trial_index":279,"time_elapsed":804155,"internal_node_id":"0.0-3.0-0.138"},{"rt":14.459999976679683,"correct":true,"stimulus":"stimulus/B12.jpg","key_press":66,"total":"exp","test_part":"train","correct_response":"B","trial_type":"categorize-image","trial_index":280,"time_elapsed":806179,"internal_node_id":"0.0-3.0-1.138"},{"rt":null,"stimulus":"<div style=\"font-size:60px;\">+</div>","key_press":null,"test_part":"fixation","trial_type":"html-keyboard-response","trial_index":281,"time_elapsed":806795,"internal_node_id":"0.0-3.0-0.139"},{"rt":76.62000000709668,"correct":false,"stimulus":"stimulus/A5.jpg","key_press":66,"total":"exp","test_part":"train","correct_response":"A","trial_type":"categorize-image","trial_index":282,"time_elapsed":808888,"internal_node_id":"0.0-3.0-1.139"},{"rt":null,"stimulus":"<div style=\"font-size:60px;\">+</div>","key_press":null,"test_part":"fixation","trial_type":"html-keyboard-response","trial_index":283,"time_elapsed":809690,"internal_node_id":"0.0-3.0-0.140"},{"rt":187.09999998100102,"correct":true,"stimulus":"stimulus/B13.jpg","key_press":66,"total":"exp","test_part":"train","correct_response":"B","trial_type":"categorize-image","trial_index":284,"time_elapsed":811884,"internal_node_id":"0.0-3.0-1.140"},{"rt":null,"stimulus":"<div style=\"font-size:60px;\">+</div>","key_press":null,"test_part":"fixation","trial_type":"html-keyboard-response","trial_index":285,"time_elapsed":812498,"internal_node_id":"0.0-3.0-0.141"},{"rt":729.9050000146963,"correct":false,"stimulus":"stimulus/B12.jpg","key_press":65,"total":"exp","test_part":"train","correct_response":"B","trial_type":"categorize-image","trial_index":286,"time_elapsed":815243,"internal_node_id":"0.0-3.0-1.141"},{"rt":null,"stimulus":"<div style=\"font-size:60px;\">+</div>","key_press":null,"test_part":"fixation","trial_type":"html-keyboard-response","trial_index":287,"time_elapsed":815858,"internal_node_id":"0.0-3.0-0.142"},{"rt":753.6599999875762,"correct":true,"stimulus":"stimulus/B10.jpg","key_press":66,"total":"exp","test_part":"train","correct_response":"B","trial_type":"categorize-image","trial_index":288,"time_elapsed":818619,"internal_node_id":"0.0-3.0-1.142"},{"rt":null,"stimulus":"<div style=\"font-size:60px;\">+</div>","key_press":null,"test_part":"fixation","trial_type":"html-keyboard-response","trial_index":289,"time_elapsed":819223,"internal_node_id":"0.0-3.0-0.143"},{"rt":40206.24999998836,"correct":false,"stimulus":"stimulus/A4.jpg","key_press":66,"total":"exp","test_part":"train","correct_response":"A","trial_type":"categorize-image","trial_index":290,"time_elapsed":861445,"internal_node_id":"0.0-3.0-1.143"},{"rt":null,"stimulus":"<div style=\"font-size:60px;\">+</div>","key_press":null,"test_part":"fixation","trial_type":"html-keyboard-response","trial_index":291,"time_elapsed":862253,"internal_node_id":"0.0-3.0-0.144"},{"rt":2127.2400000016205,"correct":true,"stimulus":"stimulus/A6.jpg","key_press":65,"total":"exp","test_part":"train","correct_response":"A","trial_type":"categorize-image","trial_index":292,"time_elapsed":866397,"internal_node_id":"0.0-3.0-1.144"},{"rt":null,"stimulus":"<div style=\"font-size:60px;\">+</div>","key_press":null,"test_part":"fixation","trial_type":"html-keyboard-response","trial_index":293,"time_elapsed":867201,"internal_node_id":"0.0-3.0-0.145"},{"rt":1598.4250000328757,"correct":false,"stimulus":"stimulus/A7.jpg","key_press":66,"total":"exp","test_part":"train","correct_response":"A","trial_type":"categorize-image","trial_index":294,"time_elapsed":870819,"internal_node_id":"0.0-3.0-1.145"},{"rt":null,"stimulus":"<div style=\"font-size:60px;\">+</div>","key_press":null,"test_part":"fixation","trial_type":"html-keyboard-response","trial_index":295,"time_elapsed":871622,"internal_node_id":"0.0-3.0-0.146"},{"rt":1030.220000015106,"correct":true,"stimulus":"stimulus/A3.jpg","key_press":65,"total":"exp","test_part":"train","correct_response":"A","trial_type":"categorize-image","trial_index":296,"time_elapsed":874665,"internal_node_id":"0.0-3.0-1.146"},{"rt":null,"stimulus":"<div style=\"font-size:60px;\">+</div>","key_press":null,"test_part":"fixation","trial_type":"html-keyboard-response","trial_index":297,"time_elapsed":875472,"internal_node_id":"0.0-3.0-0.147"},{"rt":502.9750000103377,"correct":true,"stimulus":"stimulus/A5.jpg","key_press":65,"total":"exp","test_part":"train","correct_response":"A","trial_type":"categorize-image","trial_index":298,"time_elapsed":877984,"internal_node_id":"0.0-3.0-1.147"},{"rt":null,"stimulus":"<div style=\"font-size:60px;\">+</div>","key_press":null,"test_part":"fixation","trial_type":"html-keyboard-response","trial_index":299,"time_elapsed":878598,"internal_node_id":"0.0-3.0-0.148"},{"rt":391.39499998418614,"correct":false,"stimulus":"stimulus/B11.jpg","key_press":65,"total":"exp","test_part":"train","correct_response":"B","trial_type":"categorize-image","trial_index":300,"time_elapsed":880999,"internal_node_id":"0.0-3.0-1.148"},{"rt":null,"stimulus":"<div style=\"font-size:60px;\">+</div>","key_press":null,"test_part":"fixation","trial_type":"html-keyboard-response","trial_index":301,"time_elapsed":881801,"internal_node_id":"0.0-3.0-0.149"},{"rt":1180.2200000383891,"correct":true,"stimulus":"stimulus/B14.jpg","key_press":66,"total":"exp","test_part":"train","correct_response":"B","trial_type":"categorize-image","trial_index":302,"time_elapsed":884988,"internal_node_id":"0.0-3.0-1.149"},{"rt":null,"stimulus":"<div style=\"font-size:60px;\">+</div>","key_press":null,"test_part":"fixation","trial_type":"html-keyboard-response","trial_index":303,"time_elapsed":885601,"internal_node_id":"0.0-3.0-0.150"},{"rt":1300.9999999776483,"correct":true,"stimulus":"stimulus/B11.jpg","key_press":66,"total":"exp","test_part":"train","correct_response":"B","trial_type":"categorize-image","trial_index":304,"time_elapsed":888926,"internal_node_id":"0.0-3.0-1.150"},{"rt":null,"stimulus":"<div style=\"font-size:60px;\">+</div>","key_press":null,"test_part":"fixation","trial_type":"html-keyboard-response","trial_index":305,"time_elapsed":889529,"internal_node_id":"0.0-3.0-0.151"},{"rt":323.15999997081235,"correct":false,"stimulus":"stimulus/A6.jpg","key_press":66,"total":"exp","test_part":"train","correct_response":"A","trial_type":"categorize-image","trial_index":306,"time_elapsed":891866,"internal_node_id":"0.0-3.0-1.151"},{"rt":null,"stimulus":"<div style=\"font-size:60px;\">+</div>","key_press":null,"test_part":"fixation","trial_type":"html-keyboard-response","trial_index":307,"time_elapsed":892672,"internal_node_id":"0.0-3.0-0.152"},{"rt":3326.0749999899417,"correct":true,"stimulus":"stimulus/B10.jpg","key_press":66,"total":"exp","test_part":"train","correct_response":"B","trial_type":"categorize-image","trial_index":308,"time_elapsed":898018,"internal_node_id":"0.0-3.0-1.152"},{"rt":null,"stimulus":"<div style=\"font-size:60px;\">+</div>","key_press":null,"test_part":"fixation","trial_type":"html-keyboard-response","trial_index":309,"time_elapsed":898822,"internal_node_id":"0.0-3.0-0.153"},{"rt":349.3649999727495,"correct":false,"stimulus":"stimulus/A7.jpg","key_press":66,"total":"exp","test_part":"train","correct_response":"A","trial_type":"categorize-image","trial_index":310,"time_elapsed":901191,"internal_node_id":"0.0-3.0-1.153"},{"rt":null,"stimulus":"<div style=\"font-size:60px;\">+</div>","key_press":null,"test_part":"fixation","trial_type":"html-keyboard-response","trial_index":311,"time_elapsed":901993,"internal_node_id":"0.0-3.0-0.154"},{"rt":720.9199999924749,"correct":false,"stimulus":"stimulus/B12.jpg","key_press":65,"total":"exp","test_part":"train","correct_response":"B","trial_type":"categorize-image","trial_index":312,"time_elapsed":904730,"internal_node_id":"0.0-3.0-1.154"},{"rt":null,"stimulus":"<div style=\"font-size:60px;\">+</div>","key_press":null,"test_part":"fixation","trial_type":"html-keyboard-response","trial_index":313,"time_elapsed":905345,"internal_node_id":"0.0-3.0-0.155"},{"rt":916.0850000334904,"correct":true,"stimulus":"stimulus/A5.jpg","key_press":65,"total":"exp","test_part":"train","correct_response":"A","trial_type":"categorize-image","trial_index":314,"time_elapsed":908269,"internal_node_id":"0.0-3.0-1.155"},{"rt":null,"stimulus":"<div style=\"font-size:60px;\">+</div>","key_press":null,"test_part":"fixation","trial_type":"html-keyboard-response","trial_index":315,"time_elapsed":908882,"internal_node_id":"0.0-3.0-0.156"},{"rt":699.3699999875389,"correct":true,"stimulus":"stimulus/A3.jpg","key_press":65,"total":"exp","test_part":"train","correct_response":"A","trial_type":"categorize-image","trial_index":316,"time_elapsed":911588,"internal_node_id":"0.0-3.0-1.156"},{"rt":null,"stimulus":"<div style=\"font-size:60px;\">+</div>","key_press":null,"test_part":"fixation","trial_type":"html-keyboard-response","trial_index":317,"time_elapsed":912395,"internal_node_id":"0.0-3.0-0.157"},{"rt":402.8600000310689,"correct":false,"stimulus":"stimulus/B13.jpg","key_press":65,"total":"exp","test_part":"train","correct_response":"B","trial_type":"categorize-image","trial_index":318,"time_elapsed":914806,"internal_node_id":"0.0-3.0-1.157"},{"rt":null,"stimulus":"<div style=\"font-size:60px;\">+</div>","key_press":null,"test_part":"fixation","trial_type":"html-keyboard-response","trial_index":319,"time_elapsed":915408,"internal_node_id":"0.0-3.0-0.158"},{"rt":1839.3849999993108,"correct":false,"stimulus":"stimulus/A4.jpg","key_press":66,"total":"exp","test_part":"train","correct_response":"A","trial_type":"categorize-image","trial_index":320,"time_elapsed":919258,"internal_node_id":"0.0-3.0-1.158"},{"rt":null,"stimulus":"<div style=\"font-size:60px;\">+</div>","key_press":null,"test_part":"fixation","trial_type":"html-keyboard-response","trial_index":321,"time_elapsed":920063,"internal_node_id":"0.0-3.0-0.159"},{"rt":1192.4950000247918,"correct":false,"stimulus":"stimulus/B14.jpg","key_press":65,"total":"exp","test_part":"train","correct_response":"B","trial_type":"categorize-image","trial_index":322,"time_elapsed":923263,"internal_node_id":"0.0-3.0-1.159"},{"rt":null,"stimulus":"<div style=\"font-size:60px;\">+</div>","key_press":null,"test_part":"fixation","trial_type":"html-keyboard-response","trial_index":323,"time_elapsed":924067,"internal_node_id":"0.0-3.0-0.160"},{"rt":127.68499995581806,"correct":true,"stimulus":"stimulus/B14.jpg","key_press":66,"total":"exp","test_part":"train","correct_response":"B","trial_type":"categorize-image","trial_index":324,"time_elapsed":926205,"internal_node_id":"0.0-3.0-1.160"},{"rt":null,"stimulus":"<div style=\"font-size:60px;\">+</div>","key_press":null,"test_part":"fixation","trial_type":"html-keyboard-response","trial_index":325,"time_elapsed":926811,"internal_node_id":"0.0-3.0-0.161"},{"rt":7.784999965224415,"correct":false,"stimulus":"stimulus/A3.jpg","key_press":66,"total":"exp","test_part":"train","correct_response":"A","trial_type":"categorize-image","trial_index":326,"time_elapsed":928835,"internal_node_id":"0.0-3.0-1.161"},{"rt":null,"stimulus":"<div style=\"font-size:60px;\">+</div>","key_press":null,"test_part":"fixation","trial_type":"html-keyboard-response","trial_index":327,"time_elapsed":929639,"internal_node_id":"0.0-3.0-0.162"},{"rt":16.27999998163432,"correct":false,"stimulus":"stimulus/B10.jpg","key_press":65,"total":"exp","test_part":"train","correct_response":"B","trial_type":"categorize-image","trial_index":328,"time_elapsed":931666,"internal_node_id":"0.0-3.0-1.162"},{"rt":null,"stimulus":"<div style=\"font-size:60px;\">+</div>","key_press":null,"test_part":"fixation","trial_type":"html-keyboard-response","trial_index":329,"time_elapsed":932474,"internal_node_id":"0.0-3.0-0.163"},{"rt":158.78999995766208,"correct":false,"stimulus":"stimulus/A7.jpg","key_press":66,"total":"exp","test_part":"train","correct_response":"A","trial_type":"categorize-image","trial_index":330,"time_elapsed":934644,"internal_node_id":"0.0-3.0-1.163"},{"rt":null,"stimulus":"<div style=\"font-size:60px;\">+</div>","key_press":null,"test_part":"fixation","trial_type":"html-keyboard-response","trial_index":331,"time_elapsed":935259,"internal_node_id":"0.0-3.0-0.164"},{"rt":2816.7499999981374,"correct":false,"stimulus":"stimulus/A6.jpg","key_press":66,"total":"exp","test_part":"train","correct_response":"A","trial_type":"categorize-image","trial_index":332,"time_elapsed":940091,"internal_node_id":"0.0-3.0-1.164"},{"rt":null,"stimulus":"<div style=\"font-size:60px;\">+</div>","key_press":null,"test_part":"fixation","trial_type":"html-keyboard-response","trial_index":333,"time_elapsed":940895,"internal_node_id":"0.0-3.0-0.165"},{"rt":66.04499998502433,"correct":true,"stimulus":"stimulus/A4.jpg","key_press":65,"total":"exp","test_part":"train","correct_response":"A","trial_type":"categorize-image","trial_index":334,"time_elapsed":942980,"internal_node_id":"0.0-3.0-1.165"},{"rt":null,"stimulus":"<div style=\"font-size:60px;\">+</div>","key_press":null,"test_part":"fixation","trial_type":"html-keyboard-response","trial_index":335,"time_elapsed":943594,"internal_node_id":"0.0-3.0-0.166"},{"rt":36.075000010896474,"correct":true,"stimulus":"stimulus/B13.jpg","key_press":66,"total":"exp","test_part":"train","correct_response":"B","trial_type":"categorize-image","trial_index":336,"time_elapsed":945644,"internal_node_id":"0.0-3.0-1.166"},{"rt":null,"stimulus":"<div style=\"font-size:60px;\">+</div>","key_press":null,"test_part":"fixation","trial_type":"html-keyboard-response","trial_index":337,"time_elapsed":946451,"internal_node_id":"0.0-3.0-0.167"},{"rt":39.850000001024455,"correct":true,"stimulus":"stimulus/A5.jpg","key_press":65,"total":"exp","test_part":"train","correct_response":"A","trial_type":"categorize-image","trial_index":338,"time_elapsed":948503,"internal_node_id":"0.0-3.0-1.167"},{"rt":null,"stimulus":"<div style=\"font-size:60px;\">+</div>","key_press":null,"test_part":"fixation","trial_type":"html-keyboard-response","trial_index":339,"time_elapsed":949311,"internal_node_id":"0.0-3.0-0.168"},{"rt":1557.9150000121444,"correct":true,"stimulus":"stimulus/B11.jpg","key_press":66,"total":"exp","test_part":"train","correct_response":"B","trial_type":"categorize-image","trial_index":340,"time_elapsed":952884,"internal_node_id":"0.0-3.0-1.168"},{"rt":null,"stimulus":"<div style=\"font-size:60px;\">+</div>","key_press":null,"test_part":"fixation","trial_type":"html-keyboard-response","trial_index":341,"time_elapsed":953501,"internal_node_id":"0.0-3.0-0.169"},{"rt":1158.0550000071526,"correct":true,"stimulus":"stimulus/B12.jpg","key_press":66,"total":"exp","test_part":"train","correct_response":"B","trial_type":"categorize-image","trial_index":342,"time_elapsed":956671,"internal_node_id":"0.0-3.0-1.169"},{"rt":null,"stimulus":"<div style=\"font-size:60px;\">+</div>","key_press":null,"test_part":"fixation","trial_type":"html-keyboard-response","trial_index":343,"time_elapsed":957474,"internal_node_id":"0.0-3.0-0.170"},{"rt":1238.2499999948777,"correct":true,"stimulus":"stimulus/A5.jpg","key_press":65,"total":"exp","test_part":"train","correct_response":"A","trial_type":"categorize-image","trial_index":344,"time_elapsed":960719,"internal_node_id":"0.0-3.0-1.170"},{"rt":null,"stimulus":"<div style=\"font-size:60px;\">+</div>","key_press":null,"test_part":"fixation","trial_type":"html-keyboard-response","trial_index":345,"time_elapsed":961521,"internal_node_id":"0.0-3.0-0.171"},{"rt":1721.7599999858066,"correct":true,"stimulus":"stimulus/A7.jpg","key_press":65,"total":"exp","test_part":"train","correct_response":"A","trial_type":"categorize-image","trial_index":346,"time_elapsed":965263,"internal_node_id":"0.0-3.0-1.171"},{"rt":null,"stimulus":"<div style=\"font-size:60px;\">+</div>","key_press":null,"test_part":"fixation","trial_type":"html-keyboard-response","trial_index":347,"time_elapsed":965878,"internal_node_id":"0.0-3.0-0.172"},{"rt":1783.8399999891408,"correct":true,"stimulus":"stimulus/B14.jpg","key_press":66,"total":"exp","test_part":"train","correct_response":"B","trial_type":"categorize-image","trial_index":348,"time_elapsed":969678,"internal_node_id":"0.0-3.0-1.172"},{"rt":null,"stimulus":"<div style=\"font-size:60px;\">+</div>","key_press":null,"test_part":"fixation","trial_type":"html-keyboard-response","trial_index":349,"time_elapsed":970480,"internal_node_id":"0.0-3.0-0.173"},{"rt":2466.5499999537133,"correct":true,"stimulus":"stimulus/A3.jpg","key_press":65,"total":"exp","test_part":"train","correct_response":"A","trial_type":"categorize-image","trial_index":350,"time_elapsed":974964,"internal_node_id":"0.0-3.0-1.173"},{"rt":null,"stimulus":"<div style=\"font-size:60px;\">+</div>","key_press":null,"test_part":"fixation","trial_type":"html-keyboard-response","trial_index":351,"time_elapsed":975767,"internal_node_id":"0.0-3.0-0.174"},{"rt":1732.064999989234,"correct":false,"stimulus":"stimulus/B12.jpg","key_press":65,"total":"exp","test_part":"train","correct_response":"B","trial_type":"categorize-image","trial_index":352,"time_elapsed":979519,"internal_node_id":"0.0-3.0-1.174"},{"rt":null,"stimulus":"<div style=\"font-size:60px;\">+</div>","key_press":null,"test_part":"fixation","trial_type":"html-keyboard-response","trial_index":353,"time_elapsed":980327,"internal_node_id":"0.0-3.0-0.175"},{"rt":47317.84000003245,"correct":true,"stimulus":"stimulus/B10.jpg","key_press":66,"total":"exp","test_part":"train","correct_response":"B","trial_type":"categorize-image","trial_index":354,"time_elapsed":1029653,"internal_node_id":"0.0-3.0-1.175"},{"rt":null,"stimulus":"<div style=\"font-size:60px;\">+</div>","key_press":null,"test_part":"fixation","trial_type":"html-keyboard-response","trial_index":355,"time_elapsed":1030459,"internal_node_id":"0.0-3.0-0.176"},{"rt":935.8999999822117,"correct":true,"stimulus":"stimulus/A6.jpg","key_press":65,"total":"exp","test_part":"train","correct_response":"A","trial_type":"categorize-image","trial_index":356,"time_elapsed":1033422,"internal_node_id":"0.0-3.0-1.176"},{"rt":null,"stimulus":"<div style=\"font-size:60px;\">+</div>","key_press":null,"test_part":"fixation","trial_type":"html-keyboard-response","trial_index":357,"time_elapsed":1034237,"internal_node_id":"0.0-3.0-0.177"},{"rt":1312.485000002198,"correct":true,"stimulus":"stimulus/A4.jpg","key_press":65,"total":"exp","test_part":"train","correct_response":"A","trial_type":"categorize-image","trial_index":358,"time_elapsed":1037563,"internal_node_id":"0.0-3.0-1.177"},{"rt":null,"stimulus":"<div style=\"font-size:60px;\">+</div>","key_press":null,"test_part":"fixation","trial_type":"html-keyboard-response","trial_index":359,"time_elapsed":1038178,"internal_node_id":"0.0-3.0-0.178"},{"rt":815.485000028275,"correct":true,"stimulus":"stimulus/B13.jpg","key_press":66,"total":"exp","test_part":"train","correct_response":"B","trial_type":"categorize-image","trial_index":360,"time_elapsed":1041012,"internal_node_id":"0.0-3.0-1.178"},{"rt":null,"stimulus":"<div style=\"font-size:60px;\">+</div>","key_press":null,"test_part":"fixation","trial_type":"html-keyboard-response","trial_index":361,"time_elapsed":1041818,"internal_node_id":"0.0-3.0-0.179"},{"rt":446.44999998854473,"correct":false,"stimulus":"stimulus/B11.jpg","key_press":65,"total":"exp","test_part":"train","correct_response":"B","trial_type":"categorize-image","trial_index":362,"time_elapsed":1044277,"internal_node_id":"0.0-3.0-1.179"},{"rt":15281.04000003077,"stimulus":"<p>This is the testing phase of the experiment. Feedback will NOT be provided in this session. The total number of trials in this phase are 60.<br>Press any key to begin.</p>","key_press":32,"trial_type":"html-keyboard-response","trial_index":363,"time_elapsed":1059561,"internal_node_id":"0.0-4.0"},{"rt":null,"stimulus":"<div style=\"font-size:60px;\">+</div>","key_press":null,"test_part":"fixation","trial_type":"html-keyboard-response","trial_index":364,"time_elapsed":1060370,"internal_node_id":"0.0-5.0-0.0"},{"rt":1395.7500000251457,"correct":true,"stimulus":"stimulus/B11.jpg","key_press":66,"total":"exp","test_part":"test_seen","correct_response":"B","trial_type":"categorize-image","trial_index":365,"time_elapsed":1061773,"internal_node_id":"0.0-5.0-1.0"},{"rt":null,"stimulus":"<div style=\"font-size:60px;\">+</div>","key_press":null,"test_part":"fixation","trial_type":"html-keyboard-response","trial_index":366,"time_elapsed":1062384,"internal_node_id":"0.0-5.0-0.1"},{"rt":1024.825000029523,"correct":true,"stimulus":"stimulus/B8.jpg","key_press":66,"total":"exp","test_part":"test_prototype","correct_response":"B","trial_type":"categorize-image","trial_index":367,"time_elapsed":1063412,"internal_node_id":"0.0-5.0-1.1"},{"rt":null,"stimulus":"<div style=\"font-size:60px;\">+</div>","key_press":null,"test_part":"fixation","trial_type":"html-keyboard-response","trial_index":368,"time_elapsed":1064024,"internal_node_id":"0.0-5.0-0.2"},{"rt":1742.7049999823794,"correct":true,"stimulus":"stimulus/A1.jpg","key_press":65,"total":"exp","test_part":"test_prototype","correct_response":"A","trial_type":"categorize-image","trial_index":369,"time_elapsed":1065773,"internal_node_id":"0.0-5.0-1.2"},{"rt":null,"stimulus":"<div style=\"font-size:60px;\">+</div>","key_press":null,"test_part":"fixation","trial_type":"html-keyboard-response","trial_index":370,"time_elapsed":1066582,"internal_node_id":"0.0-5.0-0.3"},{"rt":1247.4700000020675,"correct":true,"stimulus":"stimulus/A4.jpg","key_press":65,"total":"exp","test_part":"test_seen","correct_response":"A","trial_type":"categorize-image","trial_index":371,"time_elapsed":1067835,"internal_node_id":"0.0-5.0-1.3"},{"rt":null,"stimulus":"<div style=\"font-size:60px;\">+</div>","key_press":null,"test_part":"fixation","trial_type":"html-keyboard-response","trial_index":372,"time_elapsed":1068649,"internal_node_id":"0.0-5.0-0.4"},{"rt":1072.4250000203028,"correct":true,"stimulus":"stimulus/A2.jpg","key_press":65,"total":"exp","test_part":"test_unseen","correct_response":"A","trial_type":"categorize-image","trial_index":373,"time_elapsed":1069728,"internal_node_id":"0.0-5.0-1.4"},{"rt":null,"stimulus":"<div style=\"font-size:60px;\">+</div>","key_press":null,"test_part":"fixation","trial_type":"html-keyboard-response","trial_index":374,"time_elapsed":1070540,"internal_node_id":"0.0-5.0-0.5"},{"rt":1204.4350000214763,"correct":false,"stimulus":"stimulus/B9.jpg","key_press":65,"total":"exp","test_part":"test_unseen","correct_response":"B","trial_type":"categorize-image","trial_index":375,"time_elapsed":1071750,"internal_node_id":"0.0-5.0-1.5"},{"rt":null,"stimulus":"<div style=\"font-size:60px;\">+</div>","key_press":null,"test_part":"fixation","trial_type":"html-keyboard-response","trial_index":376,"time_elapsed":1072352,"internal_node_id":"0.0-5.0-0.6"},{"rt":1164.7349999984726,"correct":true,"stimulus":"stimulus/A2.jpg","key_press":65,"total":"exp","test_part":"test_unseen","correct_response":"A","trial_type":"categorize-image","trial_index":377,"time_elapsed":1073523,"internal_node_id":"0.0-5.0-1.6"},{"rt":null,"stimulus":"<div style=\"font-size:60px;\">+</div>","key_press":null,"test_part":"fixation","trial_type":"html-keyboard-response","trial_index":378,"time_elapsed":1074325,"internal_node_id":"0.0-5.0-0.7"},{"rt":1917.0650000451133,"correct":true,"stimulus":"stimulus/B11.jpg","key_press":66,"total":"exp","test_part":"test_seen","correct_response":"B","trial_type":"categorize-image","trial_index":379,"time_elapsed":1076249,"internal_node_id":"0.0-5.0-1.7"},{"rt":null,"stimulus":"<div style=\"font-size:60px;\">+</div>","key_press":null,"test_part":"fixation","trial_type":"html-keyboard-response","trial_index":380,"time_elapsed":1076860,"internal_node_id":"0.0-5.0-0.8"},{"rt":963.2350000320002,"correct":true,"stimulus":"stimulus/B8.jpg","key_press":66,"total":"exp","test_part":"test_prototype","correct_response":"B","trial_type":"categorize-image","trial_index":381,"time_elapsed":1077830,"internal_node_id":"0.0-5.0-1.8"},{"rt":null,"stimulus":"<div style=\"font-size:60px;\">+</div>","key_press":null,"test_part":"fixation","trial_type":"html-keyboard-response","trial_index":382,"time_elapsed":1078637,"internal_node_id":"0.0-5.0-0.9"},{"rt":1167.8500000271015,"correct":true,"stimulus":"stimulus/A1.jpg","key_press":65,"total":"exp","test_part":"test_prototype","correct_response":"A","trial_type":"categorize-image","trial_index":383,"time_elapsed":1079809,"internal_node_id":"0.0-5.0-1.9"},{"rt":null,"stimulus":"<div style=\"font-size:60px;\">+</div>","key_press":null,"test_part":"fixation","trial_type":"html-keyboard-response","trial_index":384,"time_elapsed":1080414,"internal_node_id":"0.0-5.0-0.10"},{"rt":1148.2550000073388,"correct":true,"stimulus":"stimulus/A4.jpg","key_press":65,"total":"exp","test_part":"test_seen","correct_response":"A","trial_type":"categorize-image","trial_index":385,"time_elapsed":1081568,"internal_node_id":"0.0-5.0-1.10"},{"rt":null,"stimulus":"<div style=\"font-size:60px;\">+</div>","key_press":null,"test_part":"fixation","trial_type":"html-keyboard-response","trial_index":386,"time_elapsed":1082383,"internal_node_id":"0.0-5.0-0.11"},{"rt":2076.564999995753,"correct":false,"stimulus":"stimulus/B9.jpg","key_press":65,"total":"exp","test_part":"test_unseen","correct_response":"B","trial_type":"categorize-image","trial_index":387,"time_elapsed":1084466,"internal_node_id":"0.0-5.0-1.11"},{"rt":null,"stimulus":"<div style=\"font-size:60px;\">+</div>","key_press":null,"test_part":"fixation","trial_type":"html-keyboard-response","trial_index":388,"time_elapsed":1085271,"internal_node_id":"0.0-5.0-0.12"},{"rt":1384.1849999735132,"correct":true,"stimulus":"stimulus/A1.jpg","key_press":65,"total":"exp","test_part":"test_prototype","correct_response":"A","trial_type":"categorize-image","trial_index":389,"time_elapsed":1086662,"internal_node_id":"0.0-5.0-1.12"},{"rt":null,"stimulus":"<div style=\"font-size:60px;\">+</div>","key_press":null,"test_part":"fixation","trial_type":"html-keyboard-response","trial_index":390,"time_elapsed":1087467,"internal_node_id":"0.0-5.0-0.13"},{"rt":686.6700000246055,"correct":false,"stimulus":"stimulus/B9.jpg","key_press":65,"total":"exp","test_part":"test_unseen","correct_response":"B","trial_type":"categorize-image","trial_index":391,"time_elapsed":1088163,"internal_node_id":"0.0-5.0-1.13"},{"rt":null,"stimulus":"<div style=\"font-size:60px;\">+</div>","key_press":null,"test_part":"fixation","trial_type":"html-keyboard-response","trial_index":392,"time_elapsed":1088772,"internal_node_id":"0.0-5.0-0.14"},{"rt":1043.390000006184,"correct":true,"stimulus":"stimulus/B11.jpg","key_press":66,"total":"exp","test_part":"test_seen","correct_response":"B","trial_type":"categorize-image","trial_index":393,"time_elapsed":1089821,"internal_node_id":"0.0-5.0-1.14"},{"rt":null,"stimulus":"<div style=\"font-size:60px;\">+</div>","key_press":null,"test_part":"fixation","trial_type":"html-keyboard-response","trial_index":394,"time_elapsed":1090425,"internal_node_id":"0.0-5.0-0.15"},{"rt":1188.7899999856018,"correct":true,"stimulus":"stimulus/A4.jpg","key_press":65,"total":"exp","test_part":"test_seen","correct_response":"A","trial_type":"categorize-image","trial_index":395,"time_elapsed":1091618,"internal_node_id":"0.0-5.0-1.15"},{"rt":null,"stimulus":"<div style=\"font-size:60px;\">+</div>","key_press":null,"test_part":"fixation","trial_type":"html-keyboard-response","trial_index":396,"time_elapsed":1092425,"internal_node_id":"0.0-5.0-0.16"},{"rt":2345.7499999785796,"correct":true,"stimulus":"stimulus/B8.jpg","key_press":66,"total":"exp","test_part":"test_prototype","correct_response":"B","trial_type":"categorize-image","trial_index":397,"time_elapsed":1094777,"internal_node_id":"0.0-5.0-1.16"},{"rt":null,"stimulus":"<div style=\"font-size:60px;\">+</div>","key_press":null,"test_part":"fixation","trial_type":"html-keyboard-response","trial_index":398,"time_elapsed":1095380,"internal_node_id":"0.0-5.0-0.17"},{"rt":1299.280000035651,"correct":true,"stimulus":"stimulus/A2.jpg","key_press":65,"total":"exp","test_part":"test_unseen","correct_response":"A","trial_type":"categorize-image","trial_index":399,"time_elapsed":1096686,"internal_node_id":"0.0-5.0-1.17"},{"rt":null,"stimulus":"<div style=\"font-size:60px;\">+</div>","key_press":null,"test_part":"fixation","trial_type":"html-keyboard-response","trial_index":400,"time_elapsed":1097493,"internal_node_id":"0.0-5.0-0.18"},{"rt":2724.099999992177,"correct":false,"stimulus":"stimulus/B9.jpg","key_press":65,"total":"exp","test_part":"test_unseen","correct_response":"B","trial_type":"categorize-image","trial_index":401,"time_elapsed":1100225,"internal_node_id":"0.0-5.0-1.18"},{"rt":null,"stimulus":"<div style=\"font-size:60px;\">+</div>","key_press":null,"test_part":"fixation","trial_type":"html-keyboard-response","trial_index":402,"time_elapsed":1100833,"internal_node_id":"0.0-5.0-0.19"},{"rt":1049.9500000150874,"correct":true,"stimulus":"stimulus/B8.jpg","key_press":66,"total":"exp","test_part":"test_prototype","correct_response":"B","trial_type":"categorize-image","trial_index":403,"time_elapsed":1101890,"internal_node_id":"0.0-5.0-1.19"},{"rt":null,"stimulus":"<div style=\"font-size:60px;\">+</div>","key_press":null,"test_part":"fixation","trial_type":"html-keyboard-response","trial_index":404,"time_elapsed":1102696,"internal_node_id":"0.0-5.0-0.20"},{"rt":1164.504999993369,"correct":true,"stimulus":"stimulus/A2.jpg","key_press":65,"total":"exp","test_part":"test_unseen","correct_response":"A","trial_type":"categorize-image","trial_index":405,"time_elapsed":1103867,"internal_node_id":"0.0-5.0-1.20"},{"rt":null,"stimulus":"<div style=\"font-size:60px;\">+</div>","key_press":null,"test_part":"fixation","trial_type":"html-keyboard-response","trial_index":406,"time_elapsed":1104681,"internal_node_id":"0.0-5.0-0.21"},{"rt":1070.415000023786,"correct":true,"stimulus":"stimulus/B11.jpg","key_press":66,"total":"exp","test_part":"test_seen","correct_response":"B","trial_type":"categorize-image","trial_index":407,"time_elapsed":1105756,"internal_node_id":"0.0-5.0-1.21"},{"rt":null,"stimulus":"<div style=\"font-size:60px;\">+</div>","key_press":null,"test_part":"fixation","trial_type":"html-keyboard-response","trial_index":408,"time_elapsed":1106557,"internal_node_id":"0.0-5.0-0.22"},{"rt":844.8500000522472,"correct":true,"stimulus":"stimulus/A4.jpg","key_press":65,"total":"exp","test_part":"test_seen","correct_response":"A","trial_type":"categorize-image","trial_index":409,"time_elapsed":1107408,"internal_node_id":"0.0-5.0-1.22"},{"rt":null,"stimulus":"<div style=\"font-size:60px;\">+</div>","key_press":null,"test_part":"fixation","trial_type":"html-keyboard-response","trial_index":410,"time_elapsed":1108210,"internal_node_id":"0.0-5.0-0.23"},{"rt":764.08499997342,"correct":false,"stimulus":"stimulus/A1.jpg","key_press":66,"total":"exp","test_part":"test_prototype","correct_response":"A","trial_type":"categorize-image","trial_index":411,"time_elapsed":1108980,"internal_node_id":"0.0-5.0-1.23"},{"rt":null,"stimulus":"<div style=\"font-size:60px;\">+</div>","key_press":null,"test_part":"fixation","trial_type":"html-keyboard-response","trial_index":412,"time_elapsed":1109596,"internal_node_id":"0.0-5.0-0.24"},{"rt":1048.5300000291318,"correct":true,"stimulus":"stimulus/B11.jpg","key_press":66,"total":"exp","test_part":"test_seen","correct_response":"B","trial_type":"categorize-image","trial_index":413,"time_elapsed":1110650,"internal_node_id":"0.0-5.0-1.24"},{"rt":null,"stimulus":"<div style=\"font-size:60px;\">+</div>","key_press":null,"test_part":"fixation","trial_type":"html-keyboard-response","trial_index":414,"time_elapsed":1111254,"internal_node_id":"0.0-5.0-0.25"},{"rt":549.3650000425987,"correct":true,"stimulus":"stimulus/A2.jpg","key_press":65,"total":"exp","test_part":"test_unseen","correct_response":"A","trial_type":"categorize-image","trial_index":415,"time_elapsed":1111810,"internal_node_id":"0.0-5.0-1.25"},{"rt":null,"stimulus":"<div style=\"font-size:60px;\">+</div>","key_press":null,"test_part":"fixation","trial_type":"html-keyboard-response","trial_index":416,"time_elapsed":1112420,"internal_node_id":"0.0-5.0-0.26"},{"rt":803.5849999869242,"correct":true,"stimulus":"stimulus/B8.jpg","key_press":66,"total":"exp","test_part":"test_prototype","correct_response":"B","trial_type":"categorize-image","trial_index":417,"time_elapsed":1113230,"internal_node_id":"0.0-5.0-1.26"},{"rt":null,"stimulus":"<div style=\"font-size:60px;\">+</div>","key_press":null,"test_part":"fixation","trial_type":"html-keyboard-response","trial_index":418,"time_elapsed":1114042,"internal_node_id":"0.0-5.0-0.27"},{"rt":1140.6999999890104,"correct":false,"stimulus":"stimulus/B9.jpg","key_press":65,"total":"exp","test_part":"test_unseen","correct_response":"B","trial_type":"categorize-image","trial_index":419,"time_elapsed":1115190,"internal_node_id":"0.0-5.0-1.27"},{"rt":null,"stimulus":"<div style=\"font-size:60px;\">+</div>","key_press":null,"test_part":"fixation","trial_type":"html-keyboard-response","trial_index":420,"time_elapsed":1115795,"internal_node_id":"0.0-5.0-0.28"},{"rt":1291.2249999935739,"correct":false,"stimulus":"stimulus/A1.jpg","key_press":66,"total":"exp","test_part":"test_prototype","correct_response":"A","trial_type":"categorize-image","trial_index":421,"time_elapsed":1117093,"internal_node_id":"0.0-5.0-1.28"},{"rt":null,"stimulus":"<div style=\"font-size:60px;\">+</div>","key_press":null,"test_part":"fixation","trial_type":"html-keyboard-response","trial_index":422,"time_elapsed":1117909,"internal_node_id":"0.0-5.0-0.29"},{"rt":624.9299999908544,"correct":true,"stimulus":"stimulus/A4.jpg","key_press":65,"total":"exp","test_part":"test_seen","correct_response":"A","trial_type":"categorize-image","trial_index":423,"time_elapsed":1118539,"internal_node_id":"0.0-5.0-1.29"},{"rt":null,"stimulus":"<div style=\"font-size:60px;\">+</div>","key_press":null,"test_part":"fixation","trial_type":"html-keyboard-response","trial_index":424,"time_elapsed":1119345,"internal_node_id":"0.0-5.0-0.30"},{"rt":549.9149999814108,"correct":true,"stimulus":"stimulus/A4.jpg","key_press":65,"total":"exp","test_part":"test_seen","correct_response":"A","trial_type":"categorize-image","trial_index":425,"time_elapsed":1119901,"internal_node_id":"0.0-5.0-1.30"},{"rt":null,"stimulus":"<div style=\"font-size:60px;\">+</div>","key_press":null,"test_part":"fixation","trial_type":"html-keyboard-response","trial_index":426,"time_elapsed":1120513,"internal_node_id":"0.0-5.0-0.31"},{"rt":1328.4399999538437,"correct":t