[{"rt":4944,"stimulus":"Welcome Pritam. Press any key to continue.","key_press":68,"trial_type":"html-keyboard-response","trial_index":0,"time_elapsed":4948,"internal_node_id":"0.0-0.0"},{"rt":13293,"stimulus":"<p>In this experiment, you will see a series of line drawings of bugs which can be classified either as Category A bugs or as Category B bugs.<br> Your job is to look carefully at each bug and decide if it belongs to Category A or Category B.</p> <p>Press “a” on the keyboard if you think it is a Category A bug and “b” if you think it is a Category B bug.<br> At first, the task will seem quite difficult, but with time and practice, you should be able to answer correctly</p><p>Press any key to continue</p>","key_press":32,"trial_type":"html-keyboard-response","trial_index":1,"time_elapsed":18243,"internal_node_id":"0.0-1.0"},{"rt":8121,"stimulus":"<p>This is the training phase of the experiment. Feedback will be provided after each trial in this session. The total number of trials in this phase are 180.<br>Press any key to begin.</p>","key_press":65,"trial_type":"html-keyboard-response","trial_index":2,"time_elapsed":26365,"internal_node_id":"0.0-2.0"},{"rt":null,"stimulus":"<div style=\"font-size:60px;\">+</div>","key_press":null,"test_part":"fixation","trial_type":"html-keyboard-response","trial_index":3,"time_elapsed":26968,"internal_node_id":"0.0-3.0-0.0"},{"rt":6144,"correct":true,"stimulus":"stimulus/A6.jpg","key_press":65,"total":"exp","test_part":"train","correct_response":"A","trial_type":"categorize-image","trial_index":4,"time_elapsed":35117,"internal_node_id":"0.0-3.0-1.0"},{"rt":null,"stimulus":"<div style=\"font-size:60px;\">+</div>","key_press":null,"test_part":"fixation","trial_type":"html-keyboard-response","trial_index":5,"time_elapsed":35920,"internal_node_id":"0.0-3.0-0.1"},{"rt":2632,"correct":true,"stimulus":"stimulus/A4.jpg","key_press":65,"total":"exp","test_part":"train","correct_response":"A","trial_type":"categorize-image","trial_index":6,"time_elapsed":40557,"internal_node_id":"0.0-3.0-1.1"},{"rt":null,"stimulus":"<div style=\"font-size:60px;\">+</div>","key_press":null,"test_part":"fixation","trial_type":"html-keyboard-response","trial_index":7,"time_elapsed":41358,"internal_node_id":"0.0-3.0-0.2"},{"rt":1875,"correct":false,"stimulus":"stimulus/B12.jpg","key_press":65,"total":"exp","test_part":"train","correct_response":"B","trial_type":"categorize-image","trial_index":8,"time_elapsed":45236,"internal_node_id":"0.0-3.0-1.2"},{"rt":null,"stimulus":"<div style=\"font-size:60px;\">+</div>","key_press":null,"test_part":"fixation","trial_type":"html-keyboard-response","trial_index":9,"time_elapsed":45838,"internal_node_id":"0.0-3.0-0.3"},{"rt":2214,"correct":true,"stimulus":"stimulus/B11.jpg","key_press":66,"total":"exp","test_part":"train","correct_response":"B","trial_type":"categorize-image","trial_index":10,"time_elapsed":50054,"internal_node_id":"0.0-3.0-1.3"},{"rt":null,"stimulus":"<div style=\"font-size:60px;\">+</div>","key_press":null,"test_part":"fixation","trial_type":"html-keyboard-response","trial_index":11,"time_elapsed":50656,"internal_node_id":"0.0-3.0-0.4"},{"rt":2508,"correct":false,"stimulus":"stimulus/A2.jpg","key_press":66,"total":"exp","test_part":"train","correct_response":"A","trial_type":"categorize-image","trial_index":12,"time_elapsed":55167,"internal_node_id":"0.0-3.0-1.4"},{"rt":null,"stimulus":"<div style=\"font-size:60px;\">+</div>","key_press":null,"test_part":"fixation","trial_type":"html-keyboard-response","trial_index":13,"time_elapsed":55969,"internal_node_id":"0.0-3.0-0.5"},{"rt":1431,"correct":false,"stimulus":"stimulus/A5.jpg","key_press":66,"total":"exp","test_part":"train","correct_response":"A","trial_type":"categorize-image","trial_index":14,"time_elapsed":59400,"internal_node_id":"0.0-3.0-1.5"},{"rt":null,"stimulus":"<div style=\"font-size:60px;\">+</div>","key_press":null,"test_part":"fixation","trial_type":"html-keyboard-response","trial_index":15,"time_elapsed":60002,"internal_node_id":"0.0-3.0-0.6"},{"rt":6076,"correct":false,"stimulus":"stimulus/B10.jpg","key_press":65,"total":"exp","test_part":"train","correct_response":"B","trial_type":"categorize-image","trial_index":16,"time_elapsed":68079,"internal_node_id":"0.0-3.0-1.6"},{"rt":null,"stimulus":"<div style=\"font-size:60px;\">+</div>","key_press":null,"test_part":"fixation","trial_type":"html-keyboard-response","trial_index":17,"time_elapsed":68880,"internal_node_id":"0.0-3.0-0.7"},{"rt":3943,"correct":true,"stimulus":"stimulus/B13.jpg","key_press":66,"total":"exp","test_part":"train","correct_response":"B","trial_type":"categorize-image","trial_index":18,"time_elapsed":74826,"internal_node_id":"0.0-3.0-1.7"},{"rt":null,"stimulus":"<div style=\"font-size:60px;\">+</div>","key_press":null,"test_part":"fixation","trial_type":"html-keyboard-response","trial_index":19,"time_elapsed":75627,"internal_node_id":"0.0-3.0-0.8"},{"rt":2521,"correct":false,"stimulus":"stimulus/B9.jpg","key_press":65,"total":"exp","test_part":"train","correct_response":"B","trial_type":"categorize-image","trial_index":20,"time_elapsed":80150,"internal_node_id":"0.0-3.0-1.8"},{"rt":null,"stimulus":"<div style=\"font-size:60px;\">+</div>","key_press":null,"test_part":"fixation","trial_type":"html-keyboard-response","trial_index":21,"time_elapsed":80952,"internal_node_id":"0.0-3.0-0.9"},{"rt":3941,"correct":false,"stimulus":"stimulus/A3.jpg","key_press":66,"total":"exp","test_part":"train","correct_response":"A","trial_type":"categorize-image","trial_index":22,"time_elapsed":86894,"internal_node_id":"0.0-3.0-1.9"},{"rt":null,"stimulus":"<div style=\"font-size:60px;\">+</div>","key_press":null,"test_part":"fixation","trial_type":"html-keyboard-response","trial_index":23,"time_elapsed":87697,"internal_node_id":"0.0-3.0-0.10"},{"rt":1940,"correct":true,"stimulus":"stimulus/B13.jpg","key_press":66,"total":"exp","test_part":"train","correct_response":"B","trial_type":"categorize-image","trial_index":24,"time_elapsed":91639,"internal_node_id":"0.0-3.0-1.10"},{"rt":null,"stimulus":"<div style=\"font-size:60px;\">+</div>","key_press":null,"test_part":"fixation","trial_type":"html-keyboard-response","trial_index":25,"time_elapsed":92440,"internal_node_id":"0.0-3.0-0.11"},{"rt":1839,"correct":false,"stimulus":"stimulus/A6.jpg","key_press":66,"total":"exp","test_part":"train","correct_response":"A","trial_type":"categorize-image","trial_index":26,"time_elapsed":96281,"internal_node_id":"0.0-3.0-1.11"},{"rt":null,"stimulus":"<div style=\"font-size:60px;\">+</div>","key_press":null,"test_part":"fixation","trial_type":"html-keyboard-response","trial_index":27,"time_elapsed":97083,"internal_node_id":"0.0-3.0-0.12"},{"rt":2542,"correct":true,"stimulus":"stimulus/B11.jpg","key_press":66,"total":"exp","test_part":"train","correct_response":"B","trial_type":"categorize-image","trial_index":28,"time_elapsed":101628,"internal_node_id":"0.0-3.0-1.12"},{"rt":null,"stimulus":"<div style=\"font-size:60px;\">+</div>","key_press":null,"test_part":"fixation","trial_type":"html-keyboard-response","trial_index":29,"time_elapsed":102231,"internal_node_id":"0.0-3.0-0.13"},{"rt":3753,"correct":true,"stimulus":"stimulus/A2.jpg","key_press":65,"total":"exp","test_part":"train","correct_response":"A","trial_type":"categorize-image","trial_index":30,"time_elapsed":107988,"internal_node_id":"0.0-3.0-1.13"},{"rt":null,"stimulus":"<div style=\"font-size:60px;\">+</div>","key_press":null,"test_part":"fixation","trial_type":"html-keyboard-response","trial_index":31,"time_elapsed":108589,"internal_node_id":"0.0-3.0-0.14"},{"rt":2986,"correct":true,"stimulus":"stimulus/A4.jpg","key_press":65,"total":"exp","test_part":"train","correct_response":"A","trial_type":"categorize-image","trial_index":32,"time_elapsed":113578,"internal_node_id":"0.0-3.0-1.14"},{"rt":null,"stimulus":"<div style=\"font-size:60px;\">+</div>","key_press":null,"test_part":"fixation","trial_type":"html-keyboard-response","trial_index":33,"time_elapsed":114379,"internal_node_id":"0.0-3.0-0.15"},{"rt":2511,"correct":false,"stimulus":"stimulus/A5.jpg","key_press":66,"total":"exp","test_part":"train","correct_response":"A","trial_type":"categorize-image","trial_index":34,"time_elapsed":118891,"internal_node_id":"0.0-3.0-1.15"},{"rt":null,"stimulus":"<div style=\"font-size:60px;\">+</div>","key_press":null,"test_part":"fixation","trial_type":"html-keyboard-response","trial_index":35,"time_elapsed":119493,"internal_node_id":"0.0-3.0-0.16"},{"rt":2105,"correct":false,"stimulus":"stimulus/A3.jpg","key_press":66,"total":"exp","test_part":"train","correct_response":"A","trial_type":"categorize-image","trial_index":36,"time_elapsed":123600,"internal_node_id":"0.0-3.0-1.16"},{"rt":null,"stimulus":"<div style=\"font-size:60px;\">+</div>","key_press":null,"test_part":"fixation","trial_type":"html-keyboard-response","trial_index":37,"time_elapsed":124403,"internal_node_id":"0.0-3.0-0.17"},{"rt":2592,"correct":true,"stimulus":"stimulus/B9.jpg","key_press":66,"total":"exp","test_part":"train","correct_response":"B","trial_type":"categorize-image","trial_index":38,"time_elapsed":128998,"internal_node_id":"0.0-3.0-1.17"},{"rt":null,"stimulus":"<div style=\"font-size:60px;\">+</div>","key_press":null,"test_part":"fixation","trial_type":"html-keyboard-response","trial_index":39,"time_elapsed":129599,"internal_node_id":"0.0-3.0-0.18"},{"rt":14010,"correct":false,"stimulus":"stimulus/B12.jpg","key_press":65,"total":"exp","test_part":"train","correct_response":"B","trial_type":"categorize-image","trial_index":40,"time_elapsed":145611,"internal_node_id":"0.0-3.0-1.18"},{"rt":null,"stimulus":"<div style=\"font-size:60px;\">+</div>","key_press":null,"test_part":"fixation","trial_type":"html-keyboard-response","trial_index":41,"time_elapsed":146412,"internal_node_id":"0.0-3.0-0.19"},{"rt":2170,"correct":true,"stimulus":"stimulus/B10.jpg","key_press":66,"total":"exp","test_part":"train","correct_response":"B","trial_type":"categorize-image","trial_index":42,"time_elapsed":150584,"internal_node_id":"0.0-3.0-1.19"},{"rt":null,"stimulus":"<div style=\"font-size:60px;\">+</div>","key_press":null,"test_part":"fixation","trial_type":"html-keyboard-response","trial_index":43,"time_elapsed":151186,"internal_node_id":"0.0-3.0-0.20"},{"rt":1519,"correct":true,"stimulus":"stimulus/A3.jpg","key_press":65,"total":"exp","test_part":"train","correct_response":"A","trial_type":"categorize-image","trial_index":44,"time_elapsed":154708,"internal_node_id":"0.0-3.0-1.20"},{"rt":null,"stimulus":"<div style=\"font-size:60px;\">+</div>","key_press":null,"test_part":"fixation","trial_type":"html-keyboard-response","trial_index":45,"time_elapsed":155510,"internal_node_id":"0.0-3.0-0.21"},{"rt":2045,"correct":true,"stimulus":"stimulus/B9.jpg","key_press":66,"total":"exp","test_part":"train","correct_response":"B","trial_type":"categorize-image","trial_index":46,"time_elapsed":159558,"internal_node_id":"0.0-3.0-1.21"},{"rt":null,"stimulus":"<div style=\"font-size:60px;\">+</div>","key_press":null,"test_part":"fixation","trial_type":"html-keyboard-response","trial_index":47,"time_elapsed":160361,"internal_node_id":"0.0-3.0-0.22"},{"rt":2873,"correct":true,"stimulus":"stimulus/A4.jpg","key_press":65,"total":"exp","test_part":"train","correct_response":"A","trial_type":"categorize-image","trial_index":48,"time_elapsed":165237,"internal_node_id":"0.0-3.0-1.22"},{"rt":null,"stimulus":"<div style=\"font-size:60px;\">+</div>","key_press":null,"test_part":"fixation","trial_type":"html-keyboard-response","trial_index":49,"time_elapsed":166039,"internal_node_id":"0.0-3.0-0.23"},{"rt":2293,"correct":true,"stimulus":"stimulus/B13.jpg","key_press":66,"total":"exp","test_part":"train","correct_response":"B","trial_type":"categorize-image","trial_index":50,"time_elapsed":170337,"internal_node_id":"0.0-3.0-1.23"},{"rt":null,"stimulus":"<div style=\"font-size:60px;\">+</div>","key_press":null,"test_part":"fixation","trial_type":"html-keyboard-response","trial_index":51,"time_elapsed":170939,"internal_node_id":"0.0-3.0-0.24"},{"rt":5023,"correct":false,"stimulus":"stimulus/A6.jpg","key_press":66,"total":"exp","test_part":"train","correct_response":"A","trial_type":"categorize-image","trial_index":52,"time_elapsed":177964,"internal_node_id":"0.0-3.0-1.24"},{"rt":null,"stimulus":"<div style=\"font-size:60px;\">+</div>","key_press":null,"test_part":"fixation","trial_type":"html-keyboard-response","trial_index":53,"time_elapsed":178766,"internal_node_id":"0.0-3.0-0.25"},{"rt":1286,"correct":true,"stimulus":"stimulus/B11.jpg","key_press":66,"total":"exp","test_part":"train","correct_response":"B","trial_type":"categorize-image","trial_index":54,"time_elapsed":182055,"internal_node_id":"0.0-3.0-1.25"},{"rt":null,"stimulus":"<div style=\"font-size:60px;\">+</div>","key_press":null,"test_part":"fixation","trial_type":"html-keyboard-response","trial_index":55,"time_elapsed":182857,"internal_node_id":"0.0-3.0-0.26"},{"rt":1489,"correct":true,"stimulus":"stimulus/B10.jpg","key_press":66,"total":"exp","test_part":"train","correct_response":"B","trial_type":"categorize-image","trial_index":56,"time_elapsed":186348,"internal_node_id":"0.0-3.0-1.26"},{"rt":null,"stimulus":"<div style=\"font-size:60px;\">+</div>","key_press":null,"test_part":"fixation","trial_type":"html-keyboard-response","trial_index":57,"time_elapsed":186950,"internal_node_id":"0.0-3.0-0.27"},{"rt":1674,"correct":true,"stimulus":"stimulus/A5.jpg","key_press":65,"total":"exp","test_part":"train","correct_response":"A","trial_type":"categorize-image","trial_index":58,"time_elapsed":190626,"internal_node_id":"0.0-3.0-1.27"},{"rt":null,"stimulus":"<div style=\"font-size:60px;\">+</div>","key_press":null,"test_part":"fixation","trial_type":"html-keyboard-response","trial_index":59,"time_elapsed":191427,"internal_node_id":"0.0-3.0-0.28"},{"rt":3338,"correct":true,"stimulus":"stimulus/A2.jpg","key_press":65,"total":"exp","test_part":"train","correct_response":"A","trial_type":"categorize-image","trial_index":60,"time_elapsed":196768,"internal_node_id":"0.0-3.0-1.28"},{"rt":null,"stimulus":"<div style=\"font-size:60px;\">+</div>","key_press":null,"test_part":"fixation","trial_type":"html-keyboard-response","trial_index":61,"time_elapsed":197570,"internal_node_id":"0.0-3.0-0.29"},{"rt":1212,"correct":true,"stimulus":"stimulus/B12.jpg","key_press":66,"total":"exp","test_part":"train","correct_response":"B","trial_type":"categorize-image","trial_index":62,"time_elapsed":200785,"internal_node_id":"0.0-3.0-1.29"},{"rt":null,"stimulus":"<div style=\"font-size:60px;\">+</div>","key_press":null,"test_part":"fixation","trial_type":"html-keyboard-response","trial_index":63,"time_elapsed":201587,"internal_node_id":"0.0-3.0-0.30"},{"rt":1190,"correct":true,"stimulus":"stimulus/A3.jpg","key_press":65,"total":"exp","test_part":"train","correct_response":"A","trial_type":"categorize-image","trial_index":64,"time_elapsed":204780,"internal_node_id":"0.0-3.0-1.30"},{"rt":null,"stimulus":"<div style=\"font-size:60px;\">+</div>","key_press":null,"test_part":"fixation","trial_type":"html-keyboard-response","trial_index":65,"time_elapsed":205381,"internal_node_id":"0.0-3.0-0.31"},{"rt":1292,"correct":true,"stimulus":"stimulus/B9.jpg","key_press":66,"total":"exp","test_part":"train","correct_response":"B","trial_type":"categorize-image","trial_index":66,"time_elapsed":208676,"internal_node_id":"0.0-3.0-1.31"},{"rt":null,"stimulus":"<div style=\"font-size:60px;\">+</div>","key_press":null,"test_part":"fixation","trial_type":"html-keyboard-response","trial_index":67,"time_elapsed":209276,"internal_node_id":"0.0-3.0-0.32"},{"rt":888,"correct":true,"stimulus":"stimulus/A6.jpg","key_press":65,"total":"exp","test_part":"train","correct_response":"A","trial_type":"categorize-image","trial_index":68,"time_elapsed":212167,"internal_node_id":"0.0-3.0-1.32"},{"rt":null,"stimulus":"<div style=\"font-size:60px;\">+</div>","key_press":null,"test_part":"fixation","trial_type":"html-keyboard-response","trial_index":69,"time_elapsed":212969,"internal_node_id":"0.0-3.0-0.33"},{"rt":478,"correct":true,"stimulus":"stimulus/B10.jpg","key_press":66,"total":"exp","test_part":"train","correct_response":"B","trial_type":"categorize-image","trial_index":70,"time_elapsed":215449,"internal_node_id":"0.0-3.0-1.33"},{"rt":null,"stimulus":"<div style=\"font-size:60px;\">+</div>","key_press":null,"test_part":"fixation","trial_type":"html-keyboard-response","trial_index":71,"time_elapsed":216250,"internal_node_id":"0.0-3.0-0.34"},{"rt":408,"correct":true,"stimulus":"stimulus/A2.jpg","key_press":65,"total":"exp","test_part":"train","correct_response":"A","trial_type":"categorize-image","trial_index":72,"time_elapsed":218661,"internal_node_id":"0.0-3.0-1.34"},{"rt":null,"stimulus":"<div style=\"font-size:60px;\">+</div>","key_press":null,"test_part":"fixation","trial_type":"html-keyboard-response","trial_index":73,"time_elapsed":219262,"internal_node_id":"0.0-3.0-0.35"},{"rt":1212,"correct":false,"stimulus":"stimulus/B13.jpg","key_press":65,"total":"exp","test_part":"train","correct_response":"B","trial_type":"categorize-image","trial_index":74,"time_elapsed":222477,"internal_node_id":"0.0-3.0-1.35"},{"rt":null,"stimulus":"<div style=\"font-size:60px;\">+</div>","key_press":null,"test_part":"fixation","trial_type":"html-keyboard-response","trial_index":75,"time_elapsed":223278,"internal_node_id":"0.0-3.0-0.36"},{"rt":1065,"correct":false,"stimulus":"stimulus/A4.jpg","key_press":66,"total":"exp","test_part":"train","correct_response":"A","trial_type":"categorize-image","trial_index":76,"time_elapsed":226347,"internal_node_id":"0.0-3.0-1.36"},{"rt":null,"stimulus":"<div style=\"font-size:60px;\">+</div>","key_press":null,"test_part":"fixation","trial_type":"html-keyboard-response","trial_index":77,"time_elapsed":227149,"internal_node_id":"0.0-3.0-0.37"},{"rt":1523,"correct":true,"stimulus":"stimulus/A5.jpg","key_press":65,"total":"exp","test_part":"train","correct_response":"A","trial_type":"categorize-image","trial_index":78,"time_elapsed":230674,"internal_node_id":"0.0-3.0-1.37"},{"rt":null,"stimulus":"<div style=\"font-size:60px;\">+</div>","key_press":null,"test_part":"fixation","trial_type":"html-keyboard-response","trial_index":79,"time_elapsed":231276,"internal_node_id":"0.0-3.0-0.38"},{"rt":1027,"correct":true,"stimulus":"stimulus/B11.jpg","key_press":66,"total":"exp","test_part":"train","correct_response":"B","trial_type":"categorize-image","trial_index":80,"time_elapsed":234308,"internal_node_id":"0.0-3.0-1.38"},{"rt":null,"stimulus":"<div style=\"font-size:60px;\">+</div>","key_press":null,"test_part":"fixation","trial_type":"html-keyboard-response","trial_index":81,"time_elapsed":235110,"internal_node_id":"0.0-3.0-0.39"},{"rt":2466,"correct":true,"stimulus":"stimulus/B12.jpg","key_press":66,"total":"exp","test_part":"train","correct_response":"B","trial_type":"categorize-image","trial_index":82,"time_elapsed":239578,"internal_node_id":"0.0-3.0-1.39"},{"rt":null,"stimulus":"<div style=\"font-size:60px;\">+</div>","key_press":null,"test_part":"fixation","trial_type":"html-keyboard-response","trial_index":83,"time_elapsed":240381,"internal_node_id":"0.0-3.0-0.40"},{"rt":721,"correct":true,"stimulus":"stimulus/A2.jpg","key_press":65,"total":"exp","test_part":"train","correct_response":"A","trial_type":"categorize-image","trial_index":84,"time_elapsed":243104,"internal_node_id":"0.0-3.0-1.40"},{"rt":null,"stimulus":"<div style=\"font-size:60px;\">+</div>","key_press":null,"test_part":"fixation","trial_type":"html-keyboard-response","trial_index":85,"time_elapsed":243906,"internal_node_id":"0.0-3.0-0.41"},{"rt":1389,"correct":false,"stimulus":"stimulus/B13.jpg","key_press":65,"total":"exp","test_part":"train","correct_response":"B","trial_type":"categorize-image","trial_index":86,"time_elapsed":247298,"internal_node_id":"0.0-3.0-1.41"},{"rt":null,"stimulus":"<div style=\"font-size:60px;\">+</div>","key_press":null,"test_part":"fixation","trial_type":"html-keyboard-response","trial_index":87,"time_elapsed":247900,"internal_node_id":"0.0-3.0-0.42"},{"rt":1663,"correct":false,"stimulus":"stimulus/A5.jpg","key_press":66,"total":"exp","test_part":"train","correct_response":"A","trial_type":"categorize-image","trial_index":88,"time_elapsed":251565,"internal_node_id":"0.0-3.0-1.42"},{"rt":null,"stimulus":"<div style=\"font-size:60px;\">+</div>","key_press":null,"test_part":"fixation","trial_type":"html-keyboard-response","trial_index":89,"time_elapsed":252166,"internal_node_id":"0.0-3.0-0.43"},{"rt":3682,"correct":true,"stimulus":"stimulus/A3.jpg","key_press":65,"total":"exp","test_part":"train","correct_response":"A","trial_type":"categorize-image","trial_index":90,"time_elapsed":257851,"internal_node_id":"0.0-3.0-1.43"},{"rt":null,"stimulus":"<div style=\"font-size:60px;\">+</div>","key_press":null,"test_part":"fixation","trial_type":"html-keyboard-response","trial_index":91,"time_elapsed":258453,"internal_node_id":"0.0-3.0-0.44"},{"rt":1542,"correct":true,"stimulus":"stimulus/B9.jpg","key_press":66,"total":"exp","test_part":"train","correct_response":"B","trial_type":"categorize-image","trial_index":92,"time_elapsed":261999,"internal_node_id":"0.0-3.0-1.44"},{"rt":null,"stimulus":"<div style=\"font-size:60px;\">+</div>","key_press":null,"test_part":"fixation","trial_type":"html-keyboard-response","trial_index":93,"time_elapsed":262600,"internal_node_id":"0.0-3.0-0.45"},{"rt":1479,"correct":false,"stimulus":"stimulus/A4.jpg","key_press":66,"total":"exp","test_part":"train","correct_response":"A","trial_type":"categorize-image","trial_index":94,"time_elapsed":266081,"internal_node_id":"0.0-3.0-1.45"},{"rt":null,"stimulus":"<div style=\"font-size:60px;\">+</div>","key_press":null,"test_part":"fixation","trial_type":"html-keyboard-response","trial_index":95,"time_elapsed":266682,"internal_node_id":"0.0-3.0-0.46"},{"rt":1371,"correct":true,"stimulus":"stimulus/B11.jpg","key_press":66,"total":"exp","test_part":"train","correct_response":"B","trial_type":"categorize-image","trial_index":96,"time_elapsed":270056,"internal_node_id":"0.0-3.0-1.46"},{"rt":null,"stimulus":"<div style=\"font-size:60px;\">+</div>","key_press":null,"test_part":"fixation","trial_type":"html-keyboard-response","trial_index":97,"time_elapsed":270858,"internal_node_id":"0.0-3.0-0.47"},{"rt":1509,"correct":true,"stimulus":"stimulus/A6.jpg","key_press":65,"total":"exp","test_part":"train","correct_response":"A","trial_type":"categorize-image","trial_index":98,"time_elapsed":274370,"internal_node_id":"0.0-3.0-1.47"},{"rt":null,"stimulus":"<div style=\"font-size:60px;\">+</div>","key_press":null,"test_part":"fixation","trial_type":"html-keyboard-response","trial_index":99,"time_elapsed":274971,"internal_node_id":"0.0-3.0-0.48"},{"rt":2664,"correct":false,"stimulus":"stimulus/B10.jpg","key_press":65,"total":"exp","test_part":"train","correct_response":"B","trial_type":"categorize-image","trial_index":100,"time_elapsed":279637,"internal_node_id":"0.0-3.0-1.48"},{"rt":null,"stimulus":"<div style=\"font-size:60px;\">+</div>","key_press":null,"test_part":"fixation","trial_type":"html-keyboard-response","trial_index":101,"time_elapsed":280438,"internal_node_id":"0.0-3.0-0.49"},{"rt":1387,"correct":true,"stimulus":"stimulus/B12.jpg","key_press":66,"total":"exp","test_part":"train","correct_response":"B","trial_type":"categorize-image","trial_index":102,"time_elapsed":283827,"internal_node_id":"0.0-3.0-1.49"},{"rt":null,"stimulus":"<div style=\"font-size:60px;\">+</div>","key_press":null,"test_part":"fixation","trial_type":"html-keyboard-response","trial_index":103,"time_elapsed":284628,"internal_node_id":"0.0-3.0-0.50"},{"rt":972,"correct":true,"stimulus":"stimulus/A3.jpg","key_press":65,"total":"exp","test_part":"train","correct_response":"A","trial_type":"categorize-image","trial_index":104,"time_elapsed":287604,"internal_node_id":"0.0-3.0-1.50"},{"rt":null,"stimulus":"<div style=\"font-size:60px;\">+</div>","key_press":null,"test_part":"fixation","trial_type":"html-keyboard-response","trial_index":105,"time_elapsed":288404,"internal_node_id":"0.0-3.0-0.51"},{"rt":1697,"correct":true,"stimulus":"stimulus/B10.jpg","key_press":66,"total":"exp","test_part":"train","correct_response":"B","trial_type":"categorize-image","trial_index":106,"time_elapsed":292102,"internal_node_id":"0.0-3.0-1.51"},{"rt":null,"stimulus":"<div style=\"font-size:60px;\">+</div>","key_press":null,"test_part":"fixation","trial_type":"html-keyboard-response","trial_index":107,"time_elapsed":292704,"internal_node_id":"0.0-3.0-0.52"},{"rt":5341,"correct":true,"stimulus":"stimulus/A6.jpg","key_press":65,"total":"exp","test_part":"train","correct_response":"A","trial_type":"categorize-image","trial_index":108,"time_elapsed":300047,"internal_node_id":"0.0-3.0-1.52"},{"rt":null,"stimulus":"<div style=\"font-size:60px;\">+</div>","key_press":null,"test_part":"fixation","trial_type":"html-keyboard-response","trial_index":109,"time_elapsed":300847,"internal_node_id":"0.0-3.0-0.53"},{"rt":2487,"correct":false,"stimulus":"stimulus/A4.jpg","key_press":66,"total":"exp","test_part":"train","correct_response":"A","trial_type":"categorize-image","trial_index":110,"time_elapsed":305337,"internal_node_id":"0.0-3.0-1.53"},{"rt":null,"stimulus":"<div style=\"font-size:60px;\">+</div>","key_press":null,"test_part":"fixation","trial_type":"html-keyboard-response","trial_index":111,"time_elapsed":305938,"internal_node_id":"0.0-3.0-0.54"},{"rt":1665,"correct":true,"stimulus":"stimulus/A2.jpg","key_press":65,"total":"exp","test_part":"train","correct_response":"A","trial_type":"categorize-image","trial_index":112,"time_elapsed":309606,"internal_node_id":"0.0-3.0-1.54"},{"rt":null,"stimulus":"<div style=\"font-size:60px;\">+</div>","key_press":null,"test_part":"fixation","trial_type":"html-keyboard-response","trial_index":113,"time_elapsed":310407,"internal_node_id":"0.0-3.0-0.55"},{"rt":4206,"correct":true,"stimulus":"stimulus/B13.jpg","key_press":66,"total":"exp","test_part":"train","correct_response":"B","trial_type":"categorize-image","trial_index":114,"time_elapsed":316613,"internal_node_id":"0.0-3.0-1.55"},{"rt":null,"stimulus":"<div style=\"font-size:60px;\">+</div>","key_press":null,"test_part":"fixation","trial_type":"html-keyboard-response","trial_index":115,"time_elapsed":317415,"internal_node_id":"0.0-3.0-0.56"},{"rt":1102,"correct":true,"stimulus":"stimulus/B11.jpg","key_press":66,"total":"exp","test_part":"train","correct_response":"B","trial_type":"categorize-image","trial_index":116,"time_elapsed":320520,"internal_node_id":"0.0-3.0-1.56"},{"rt":null,"stimulus":"<div style=\"font-size:60px;\">+</div>","key_press":null,"test_part":"fixation","trial_type":"html-keyboard-response","trial_index":117,"time_elapsed":321121,"internal_node_id":"0.0-3.0-0.57"},{"rt":853,"correct":true,"stimulus":"stimulus/B9.jpg","key_press":66,"total":"exp","test_part":"train","correct_response":"B","trial_type":"categorize-image","trial_index":118,"time_elapsed":323977,"internal_node_id":"0.0-3.0-1.57"},{"rt":null,"stimulus":"<div style=\"font-size:60px;\">+</div>","key_press":null,"test_part":"fixation","trial_type":"html-keyboard-response","trial_index":119,"time_elapsed":324779,"internal_node_id":"0.0-3.0-0.58"},{"rt":3588,"correct":true,"stimulus":"stimulus/B12.jpg","key_press":66,"total":"exp","test_part":"train","correct_response":"B","trial_type":"categorize-image","trial_index":120,"time_elapsed":330369,"internal_node_id":"0.0-3.0-1.58"},{"rt":null,"stimulus":"<div style=\"font-size:60px;\">+</div>","key_press":null,"test_part":"fixation","trial_type":"html-keyboard-response","trial_index":121,"time_elapsed":330969,"internal_node_id":"0.0-3.0-0.59"},{"rt":1657,"correct":true,"stimulus":"stimulus/A5.jpg","key_press":65,"total":"exp","test_part":"train","correct_response":"A","trial_type":"categorize-image","trial_index":122,"time_elapsed":334628,"internal_node_id":"0.0-3.0-1.59"},{"rt":null,"stimulus":"<div style=\"font-size:60px;\">+</div>","key_press":null,"test_part":"fixation","trial_type":"html-keyboard-response","trial_index":123,"time_elapsed":335230,"internal_node_id":"0.0-3.0-0.60"},{"rt":922,"correct":true,"stimulus":"stimulus/B12.jpg","key_press":66,"total":"exp","test_part":"train","correct_response":"B","trial_type":"categorize-image","trial_index":124,"time_elapsed":338153,"internal_node_id":"0.0-3.0-1.60"},{"rt":null,"stimulus":"<div style=\"font-size:60px;\">+</div>","key_press":null,"test_part":"fixation","trial_type":"html-keyboard-response","trial_index":125,"time_elapsed":338956,"internal_node_id":"0.0-3.0-0.61"},{"rt":1288,"correct":true,"stimulus":"stimulus/B10.jpg","key_press":66,"total":"exp","test_part":"train","correct_response":"B","trial_type":"categorize-image","trial_index":126,"time_elapsed":342246,"internal_node_id":"0.0-3.0-1.61"},{"rt":null,"stimulus":"<div style=\"font-size:60px;\">+</div>","key_press":null,"test_part":"fixation","trial_type":"html-keyboard-response","trial_index":127,"time_elapsed":343047,"internal_node_id":"0.0-3.0-0.62"},{"rt":549,"correct":false,"stimulus":"stimulus/A4.jpg","key_press":66,"total":"exp","test_part":"train","correct_response":"A","trial_type":"categorize-image","trial_index":128,"time_elapsed":345600,"internal_node_id":"0.0-3.0-1.62"},{"rt":null,"stimulus":"<div style=\"font-size:60px;\">+</div>","key_press":null,"test_part":"fixation","trial_type":"html-keyboard-response","trial_index":129,"time_elapsed":346400,"internal_node_id":"0.0-3.0-0.63"},{"rt":911,"correct":true,"stimulus":"stimulus/A3.jpg","key_press":65,"total":"exp","test_part":"train","correct_response":"A","trial_type":"categorize-image","trial_index":130,"time_elapsed":349314,"internal_node_id":"0.0-3.0-1.63"},{"rt":null,"stimulus":"<div style=\"font-size:60px;\">+</div>","key_press":null,"test_part":"fixation","trial_type":"html-keyboard-response","trial_index":131,"time_elapsed":349915,"internal_node_id":"0.0-3.0-0.64"},{"rt":763,"correct":true,"stimulus":"stimulus/A5.jpg","key_press":65,"total":"exp","test_part":"train","correct_response":"A","trial_type":"categorize-image","trial_index":132,"time_elapsed":352680,"internal_node_id":"0.0-3.0-1.64"},{"rt":null,"stimulus":"<div style=\"font-size:60px;\">+</div>","key_press":null,"test_part":"fixation","trial_type":"html-keyboard-response","trial_index":133,"time_elapsed":353281,"internal_node_id":"0.0-3.0-0.65"},{"rt":2377,"correct":true,"stimulus":"stimulus/B13.jpg","key_press":66,"total":"exp","test_part":"train","correct_response":"B","trial_type":"categorize-image","trial_index":134,"time_elapsed":357660,"internal_node_id":"0.0-3.0-1.65"},{"rt":null,"stimulus":"<div style=\"font-size:60px;\">+</div>","key_press":null,"test_part":"fixation","trial_type":"html-keyboard-response","trial_index":135,"time_elapsed":358461,"internal_node_id":"0.0-3.0-0.66"},{"rt":2527,"correct":true,"stimulus":"stimulus/B11.jpg","key_press":66,"total":"exp","test_part":"train","correct_response":"B","trial_type":"categorize-image","trial_index":136,"time_elapsed":362990,"internal_node_id":"0.0-3.0-1.66"},{"rt":null,"stimulus":"<div style=\"font-size:60px;\">+</div>","key_press":null,"test_part":"fixation","trial_type":"html-keyboard-response","trial_index":137,"time_elapsed":363792,"internal_node_id":"0.0-3.0-0.67"},{"rt":2039,"correct":true,"stimulus":"stimulus/A6.jpg","key_press":65,"total":"exp","test_part":"train","correct_response":"A","trial_type":"categorize-image","trial_index":138,"time_elapsed":367834,"internal_node_id":"0.0-3.0-1.67"},{"rt":null,"stimulus":"<div style=\"font-size:60px;\">+</div>","key_press":null,"test_part":"fixation","trial_type":"html-keyboard-response","trial_index":139,"time_elapsed":368435,"internal_node_id":"0.0-3.0-0.68"},{"rt":3990,"correct":true,"stimulus":"stimulus/B9.jpg","key_press":66,"total":"exp","test_part":"train","correct_response":"B","trial_type":"categorize-image","trial_index":140,"time_elapsed":374427,"internal_node_id":"0.0-3.0-1.68"},{"rt":null,"stimulus":"<div style=\"font-size:60px;\">+</div>","key_press":null,"test_part":"fixation","trial_type":"html-keyboard-response","trial_index":141,"time_elapsed":375029,"internal_node_id":"0.0-3.0-0.69"},{"rt":810,"correct":true,"stimulus":"stimulus/A2.jpg","key_press":65,"total":"exp","test_part":"train","correct_response":"A","trial_type":"categorize-image","trial_index":142,"time_elapsed":377841,"internal_node_id":"0.0-3.0-1.69"},{"rt":null,"stimulus":"<div style=\"font-size:60px;\">+</div>","key_press":null,"test_part":"fixation","trial_type":"html-keyboard-response","trial_index":143,"time_elapsed":378642,"internal_node_id":"0.0-3.0-0.70"},{"rt":1000,"correct":true,"stimulus":"stimulus/A3.jpg","key_press":65,"total":"exp","test_part":"train","correct_response":"A","trial_type":"categorize-image","trial_index":144,"time_elapsed":381644,"internal_node_id":"0.0-3.0-1.70"},{"rt":null,"stimulus":"<div style=\"font-size:60px;\">+</div>","key_press":null,"test_part":"fixation","trial_type":"html-keyboard-response","trial_index":145,"time_elapsed":382244,"internal_node_id":"0.0-3.0-0.71"},{"rt":964,"correct":true,"stimulus":"stimulus/B11.jpg","key_press":66,"total":"exp","test_part":"train","correct_response":"B","trial_type":"categorize-image","trial_index":146,"time_elapsed":385210,"internal_node_id":"0.0-3.0-1.71"},{"rt":null,"stimulus":"<div style=\"font-size:60px;\">+</div>","key_press":null,"test_part":"fixation","trial_type":"html-keyboard-response","trial_index":147,"time_elapsed":385812,"internal_node_id":"0.0-3.0-0.72"},{"rt":1056,"correct":true,"stimulus":"stimulus/B10.jpg","key_press":66,"total":"exp","test_part":"train","correct_response":"B","trial_type":"categorize-image","trial_index":148,"time_elapsed":388869,"internal_node_id":"0.0-3.0-1.72"},{"rt":null,"stimulus":"<div style=\"font-size:60px;\">+</div>","key_press":null,"test_part":"fixation","trial_type":"html-keyboard-response","trial_index":149,"time_elapsed":389470,"internal_node_id":"0.0-3.0-0.73"},{"rt":1541,"correct":false,"stimulus":"stimulus/B12.jpg","key_press":65,"total":"exp","test_part":"train","correct_response":"B","trial_type":"categorize-image","trial_index":150,"time_elapsed":393014,"internal_node_id":"0.0-3.0-1.73"},{"rt":null,"stimulus":"<div style=\"font-size:60px;\">+</div>","key_press":null,"test_part":"fixation","trial_type":"html-keyboard-response","trial_index":151,"time_elapsed":393616,"internal_node_id":"0.0-3.0-0.74"},{"rt":728,"correct":true,"stimulus":"stimulus/A6.jpg","key_press":65,"total":"exp","test_part":"train","correct_response":"A","trial_type":"categorize-image","trial_index":152,"time_elapsed":396346,"internal_node_id":"0.0-3.0-1.74"},{"rt":null,"stimulus":"<div style=\"font-size:60px;\">+</div>","key_press":null,"test_part":"fixation","trial_type":"html-keyboard-response","trial_index":153,"time_elapsed":397146,"internal_node_id":"0.0-3.0-0.75"},{"rt":831,"correct":true,"stimulus":"stimulus/A5.jpg","key_press":65,"total":"exp","test_part":"train","correct_response":"A","trial_type":"categorize-image","trial_index":154,"time_elapsed":399979,"internal_node_id":"0.0-3.0-1.75"},{"rt":null,"stimulus":"<div style=\"font-size:60px;\">+</div>","key_press":null,"test_part":"fixation","trial_type":"html-keyboard-response","trial_index":155,"time_elapsed":400581,"internal_node_id":"0.0-3.0-0.76"},{"rt":1401,"correct":true,"stimulus":"stimulus/A2.jpg","key_press":65,"total":"exp","test_part":"train","correct_response":"A","trial_type":"categorize-image","trial_index":156,"time_elapsed":403983,"internal_node_id":"0.0-3.0-1.76"},{"rt":null,"stimulus":"<div style=\"font-size:60px;\">+</div>","key_press":null,"test_part":"fixation","trial_type":"html-keyboard-response","trial_index":157,"time_elapsed":404584,"internal_node_id":"0.0-3.0-0.77"},{"rt":916,"correct":false,"stimulus":"stimulus/B13.jpg","key_press":65,"total":"exp","test_part":"train","correct_response":"B","trial_type":"categorize-image","trial_index":158,"time_elapsed":407502,"internal_node_id":"0.0-3.0-1.77"},{"rt":null,"stimulus":"<div style=\"font-size:60px;\">+</div>","key_press":null,"test_part":"fixation","trial_type":"html-keyboard-response","trial_index":159,"time_elapsed":408302,"internal_node_id":"0.0-3.0-0.78"},{"rt":1388,"correct":true,"stimulus":"stimulus/B9.jpg","key_press":66,"total":"exp","test_part":"train","correct_response":"B","trial_type":"categorize-image","trial_index":160,"time_elapsed":411693,"internal_node_id":"0.0-3.0-1.78"},{"rt":null,"stimulus":"<div style=\"font-size:60px;\">+</div>","key_press":null,"test_part":"fixation","trial_type":"html-keyboard-response","trial_index":161,"time_elapsed":412294,"internal_node_id":"0.0-3.0-0.79"},{"rt":707,"correct":false,"stimulus":"stimulus/A4.jpg","key_press":66,"total":"exp","test_part":"train","correct_response":"A","trial_type":"categorize-image","trial_index":162,"time_elapsed":415002,"internal_node_id":"0.0-3.0-1.79"},{"rt":null,"stimulus":"<div style=\"font-size:60px;\">+</div>","key_press":null,"test_part":"fixation","trial_type":"html-keyboard-response","trial_index":163,"time_elapsed":415604,"internal_node_id":"0.0-3.0-0.80"},{"rt":1845,"correct":true,"stimulus":"stimulus/B10.jpg","key_press":66,"total":"exp","test_part":"train","correct_response":"B","trial_type":"categorize-image","trial_index":164,"time_elapsed":419450,"internal_node_id":"0.0-3.0-1.80"},{"rt":null,"stimulus":"<div style=\"font-size:60px;\">+</div>","key_press":null,"test_part":"fixation","trial_type":"html-keyboard-response","trial_index":165,"time_elapsed":420051,"internal_node_id":"0.0-3.0-0.81"},{"rt":3193,"correct":true,"stimulus":"stimulus/A4.jpg","key_press":65,"total":"exp","test_part":"train","correct_response":"A","trial_type":"categorize-image","trial_index":166,"time_elapsed":425245,"internal_node_id":"0.0-3.0-1.81"},{"rt":null,"stimulus":"<div style=\"font-size:60px;\">+</div>","key_press":null,"test_part":"fixation","trial_type":"html-keyboard-response","trial_index":167,"time_elapsed":426046,"internal_node_id":"0.0-3.0-0.82"},{"rt":4398,"correct":true,"stimulus":"stimulus/A5.jpg","key_press":65,"total":"exp","test_part":"train","correct_response":"A","trial_type":"categorize-image","trial_index":168,"time_elapsed":432446,"internal_node_id":"0.0-3.0-1.82"},{"rt":null,"stimulus":"<div style=\"font-size:60px;\">+</div>","key_press":null,"test_part":"fixation","trial_type":"html-keyboard-response","trial_index":169,"time_elapsed":433047,"internal_node_id":"0.0-3.0-0.83"},{"rt":3956,"correct":true,"stimulus":"stimulus/A2.jpg","key_press":65,"total":"exp","test_part":"train","correct_response":"A","trial_type":"categorize-image","trial_index":170,"time_elapsed":439007,"internal_node_id":"0.0-3.0-1.83"},{"rt":null,"stimulus":"<div style=\"font-size:60px;\">+</div>","key_press":null,"test_part":"fixation","trial_type":"html-keyboard-response","trial_index":171,"time_elapsed":439808,"internal_node_id":"0.0-3.0-0.84"},{"rt":1431,"correct":true,"stimulus":"stimulus/B9.jpg","key_press":66,"total":"exp","test_part":"train","correct_response":"B","trial_type":"categorize-image","trial_index":172,"time_elapsed":443241,"internal_node_id":"0.0-3.0-1.84"},{"rt":null,"stimulus":"<div style=\"font-size:60px;\">+</div>","key_press":null,"test_part":"fixation","trial_type":"html-keyboard-response","trial_index":173,"time_elapsed":443842,"internal_node_id":"0.0-3.0-0.85"},{"rt":902,"correct":true,"stimulus":"stimulus/A3.jpg","key_press":65,"total":"exp","test_part":"train","correct_response":"A","trial_type":"categorize-image","trial_index":174,"time_elapsed":446746,"internal_node_id":"0.0-3.0-1.85"},{"rt":null,"stimulus":"<div style=\"font-size:60px;\">+</div>","key_press":null,"test_part":"fixation","trial_type":"html-keyboard-response","trial_index":175,"time_elapsed":447348,"internal_node_id":"0.0-3.0-0.86"},{"rt":1762,"correct":true,"stimulus":"stimulus/B12.jpg","key_press":66,"total":"exp","test_part":"train","correct_response":"B","trial_type":"categorize-image","trial_index":176,"time_elapsed":451112,"internal_node_id":"0.0-3.0-1.86"},{"rt":null,"stimulus":"<div style=\"font-size:60px;\">+</div>","key_press":null,"test_part":"fixation","trial_type":"html-keyboard-response","trial_index":177,"time_elapsed":451914,"internal_node_id":"0.0-3.0-0.87"},{"rt":849,"correct":true,"stimulus":"stimulus/A6.jpg","key_press":65,"total":"exp","test_part":"train","correct_response":"A","trial_type":"categorize-image","trial_index":178,"time_elapsed":454763,"internal_node_id":"0.0-3.0-1.87"},{"rt":null,"stimulus":"<div style=\"font-size:60px;\">+</div>","key_press":null,"test_part":"fixation","trial_type":"html-keyboard-response","trial_index":179,"time_elapsed":455564,"internal_node_id":"0.0-3.0-0.88"},{"rt":989,"correct":true,"stimulus":"stimulus/B11.jpg","key_press":66,"total":"exp","test_part":"train","correct_response":"B","trial_type":"categorize-image","trial_index":180,"time_elapsed":458555,"internal_node_id":"0.0-3.0-1.88"},{"rt":null,"stimulus":"<div style=\"font-size:60px;\">+</div>","key_press":null,"test_part":"fixation","trial_type":"html-keyboard-response","trial_index":181,"time_elapsed":459157,"internal_node_id":"0.0-3.0-0.89"},{"rt":2573,"correct":true,"stimulus":"stimulus/B13.jpg","key_press":66,"total":"exp","test_part":"train","correct_response":"B","trial_type":"categorize-image","trial_index":182,"time_elapsed":463732,"internal_node_id":"0.0-3.0-1.89"},{"rt":null,"stimulus":"<div style=\"font-size:60px;\">+</div>","key_press":null,"test_part":"fixation","trial_type":"html-keyboard-response","trial_index":183,"time_elapsed":464334,"internal_node_id":"0.0-3.0-0.90"},{"rt":743,"correct":false,"stimulus":"stimulus/B12.jpg","key_press":65,"total":"exp","test_part":"train","correct_response":"B","trial_type":"categorize-image","trial_index":184,"time_elapsed":467078,"internal_node_id":"0.0-3.0-1.90"},{"rt":null,"stimulus":"<div style=\"font-size:60px;\">+</div>","key_press":null,"test_part":"fixation","trial_type":"html-keyboard-response","trial_index":185,"time_elapsed":467879,"internal_node_id":"0.0-3.0-0.91"},{"rt":1351,"correct":true,"stimulus":"stimulus/A2.jpg","key_press":65,"total":"exp","test_part":"train","correct_response":"A","trial_type":"categorize-image","trial_index":186,"time_elapsed":471232,"internal_node_id":"0.0-3.0-1.91"},{"rt":null,"stimulus":"<div style=\"font-size:60px;\">+</div>","key_press":null,"test_part":"fixation","trial_type":"html-keyboard-response","trial_index":187,"time_elapsed":472033,"internal_node_id":"0.0-3.0-0.92"},{"rt":3916,"correct":true,"stimulus":"stimulus/A3.jpg","key_press":65,"total":"exp","test_part":"train","correct_response":"A","trial_type":"categorize-image","trial_index":188,"time_elapsed":477951,"internal_node_id":"0.0-3.0-1.92"},{"rt":null,"stimulus":"<div style=\"font-size:60px;\">+</div>","key_press":null,"test_part":"fixation","trial_type":"html-keyboard-response","trial_index":189,"time_elapsed":478552,"internal_node_id":"0.0-3.0-0.93"},{"rt":2616,"correct":true,"stimulus":"stimulus/A4.jpg","key_press":65,"total":"exp","test_part":"train","correct_response":"A","trial_type":"categorize-image","trial_index":190,"time_elapsed":483169,"internal_node_id":"0.0-3.0-1.93"},{"rt":null,"stimulus":"<div style=\"font-size:60px;\">+</div>","key_press":null,"test_part":"fixation","trial_type":"html-keyboard-response","trial_index":191,"time_elapsed":483771,"internal_node_id":"0.0-3.0-0.94"},{"rt":3942,"correct":true,"stimulus":"stimulus/B9.jpg","key_press":66,"total":"exp","test_part":"train","correct_response":"B","trial_type":"categorize-image","trial_index":192,"time_elapsed":489716,"internal_node_id":"0.0-3.0-1.94"},{"rt":null,"stimulus":"<div style=\"font-size:60px;\">+</div>","key_press":null,"test_part":"fixation","trial_type":"html-keyboard-response","trial_index":193,"time_elapsed":490518,"internal_node_id":"0.0-3.0-0.95"},{"rt":1668,"correct":false,"stimulus":"stimulus/B10.jpg","key_press":65,"total":"exp","test_part":"train","correct_response":"B","trial_type":"categorize-image","trial_index":194,"time_elapsed":494188,"internal_node_id":"0.0-3.0-1.95"},{"rt":null,"stimulus":"<div style=\"font-size:60px;\">+</div>","key_press":null,"test_part":"fixation","trial_type":"html-keyboard-response","trial_index":195,"time_elapsed":494989,"internal_node_id":"0.0-3.0-0.96"},{"rt":3044,"correct":true,"stimulus":"stimulus/B11.jpg","key_press":66,"total":"exp","test_part":"train","correct_response":"B","trial_type":"categorize-image","trial_index":196,"time_elapsed":500036,"internal_node_id":"0.0-3.0-1.96"},{"rt":null,"stimulus":"<div style=\"font-size:60px;\">+</div>","key_press":null,"test_part":"fixation","trial_type":"html-keyboard-response","trial_index":197,"time_elapsed":500836,"internal_node_id":"0.0-3.0-0.97"},{"rt":5432,"correct":true,"stimulus":"stimulus/B13.jpg","key_press":66,"total":"exp","test_part":"train","correct_response":"B","trial_type":"categorize-image","trial_index":198,"time_elapsed":508270,"internal_node_id":"0.0-3.0-1.97"},{"rt":null,"stimulus":"<div style=\"font-size:60px;\">+</div>","key_press":null,"test_part":"fixation","trial_type":"html-keyboard-response","trial_index":199,"time_elapsed":508870,"internal_node_id":"0.0-3.0-0.98"},{"rt":2436,"correct":true,"stimulus":"stimulus/A5.jpg","key_press":65,"total":"exp","test_part":"train","correct_response":"A","trial_type":"categorize-image","trial_index":200,"time_elapsed":513308,"internal_node_id":"0.0-3.0-1.98"},{"rt":null,"stimulus":"<div style=\"font-size:60px;\">+</div>","key_press":null,"test_part":"fixation","trial_type":"html-keyboard-response","trial_index":201,"time_elapsed":513908,"internal_node_id":"0.0-3.0-0.99"},{"rt":4259,"correct":true,"stimulus":"stimulus/A6.jpg","key_press":65,"total":"exp","test_part":"train","correct_response":"A","trial_type":"categorize-image","trial_index":202,"time_elapsed":520169,"internal_node_id":"0.0-3.0-1.99"},{"rt":null,"stimulus":"<div style=\"font-size:60px;\">+</div>","key_press":null,"test_part":"fixation","trial_type":"html-keyboard-response","trial_index":203,"time_elapsed":520970,"internal_node_id":"0.0-3.0-0.100"},{"rt":2112,"correct":true,"stimulus":"stimulus/A6.jpg","key_press":65,"total":"exp","test_part":"train","correct_response":"A","trial_type":"categorize-image","trial_index":204,"time_elapsed":525083,"internal_node_id":"0.0-3.0-1.100"},{"rt":null,"stimulus":"<div style=\"font-size:60px;\">+</div>","key_press":null,"test_part":"fixation","trial_type":"html-keyboard-response","trial_index":205,"time_elapsed":525884,"internal_node_id":"0.0-3.0-0.101"},{"rt":2348,"correct":true,"stimulus":"stimulus/B12.jpg","key_press":66,"total":"exp","test_part":"train","correct_response":"B","trial_type":"categorize-image","trial_index":206,"time_elapsed":530233,"internal_node_id":"0.0-3.0-1.101"},{"rt":null,"stimulus":"<div style=\"font-size:60px;\">+</div>","key_press":null,"test_part":"fixation","trial_type":"html-keyboard-response","trial_index":207,"time_elapsed":531035,"internal_node_id":"0.0-3.0-0.102"},{"rt":2778,"correct":true,"stimulus":"stimulus/A3.jpg","key_press":65,"total":"exp","test_part":"train","correct_response":"A","trial_type":"categorize-image","trial_index":208,"time_elapsed":535815,"internal_node_id":"0.0-3.0-1.102"},{"rt":null,"stimulus":"<div style=\"font-size:60px;\">+</div>","key_press":null,"test_part":"fixation","trial_type":"html-keyboard-response","trial_index":209,"time_elapsed":536416,"internal_node_id":"0.0-3.0-0.103"},{"rt":12545,"correct":true,"stimulus":"stimulus/B13.jpg","key_press":66,"total":"exp","test_part":"train","correct_response":"B","trial_type":"categorize-image","trial_index":210,"time_elapsed":550963,"internal_node_id":"0.0-3.0-1.103"},{"rt":null,"stimulus":"<div style=\"font-size:60px;\">+</div>","key_press":null,"test_part":"fixation","trial_type":"html-keyboard-response","trial_index":211,"time_elapsed":551563,"internal_node_id":"0.0-3.0-0.104"},{"rt":1427,"correct":true,"stimulus":"stimulus/B9.jpg","key_press":66,"total":"exp","test_part":"train","correct_response":"B","trial_type":"categorize-image","trial_index":212,"time_elapsed":554993,"internal_node_id":"0.0-3.0-1.104"},{"rt":null,"stimulus":"<div style=\"font-size:60px;\">+</div>","key_press":null,"test_part":"fixation","trial_type":"html-keyboard-response","trial_index":213,"time_elapsed":555594,"internal_node_id":"0.0-3.0-0.105"},{"rt":2362,"correct":true,"stimulus":"stimulus/A2.jpg","key_press":65,"total":"exp","test_part":"train","correct_response":"A","trial_type":"categorize-image","trial_index":214,"time_elapsed":559958,"internal_node_id":"0.0-3.0-1.105"},{"rt":null,"stimulus":"<div style=\"font-size:60px;\">+</div>","key_press":null,"test_part":"fixation","trial_type":"html-keyboard-response","trial_index":215,"time_elapsed":560559,"internal_node_id":"0.0-3.0-0.106"},{"rt":2938,"correct":true,"stimulus":"stimulus/A5.jpg","key_press":65,"total":"exp","test_part":"train","correct_response":"A","trial_type":"categorize-image","trial_index":216,"time_elapsed":565499,"internal_node_id":"0.0-3.0-1.106"},{"rt":null,"stimulus":"<div style=\"font-size:60px;\">+</div>","key_press":null,"test_part":"fixation","trial_type":"html-keyboard-response","trial_index":217,"time_elapsed":566100,"internal_node_id":"0.0-3.0-0.107"},{"rt":1881,"correct":true,"stimulus":"stimulus/A4.jpg","key_press":65,"total":"exp","test_part":"train","correct_response":"A","trial_type":"categorize-image","trial_index":218,"time_elapsed":569984,"internal_node_id":"0.0-3.0-1.107"},{"rt":null,"stimulus":"<div style=\"font-size:60px;\">+</div>","key_press":null,"test_part":"fixation","trial_type":"html-keyboard-response","trial_index":219,"time_elapsed":570585,"internal_node_id":"0.0-3.0-0.108"},{"rt":2610,"correct":true,"stimulus":"stimulus/B11.jpg","key_press":66,"total":"exp","test_part":"train","correct_response":"B","trial_type":"categorize-image","trial_index":220,"time_elapsed":575198,"internal_node_id":"0.0-3.0-1.108"},{"rt":null,"stimulus":"<div style=\"font-size:60px;\">+</div>","key_press":null,"test_part":"fixation","trial_type":"html-keyboard-response","trial_index":221,"time_elapsed":576000,"internal_node_id":"0.0-3.0-0.109"},{"rt":6651,"correct":false,"stimulus":"stimulus/B10.jpg","key_press":65,"total":"exp","test_part":"train","correct_response":"B","trial_type":"categorize-image","trial_index":222,"time_elapsed":584655,"internal_node_id":"0.0-3.0-1.109"},{"rt":null,"stimulus":"<div style=\"font-size:60px;\">+</div>","key_press":null,"test_part":"fixation","trial_type":"html-keyboard-response","trial_index":223,"time_elapsed":585455,"internal_node_id":"0.0-3.0-0.110"},{"rt":1787,"correct":true,"stimulus":"stimulus/B11.jpg","key_press":66,"total":"exp","test_part":"train","correct_response":"B","trial_type":"categorize-image","trial_index":224,"time_elapsed":589244,"internal_node_id":"0.0-3.0-1.110"},{"rt":null,"stimulus":"<div style=\"font-size:60px;\">+</div>","key_press":null,"test_part":"fixation","trial_type":"html-keyboard-response","trial_index":225,"time_elapsed":590046,"internal_node_id":"0.0-3.0-0.111"},{"rt":6551,"correct":true,"stimulus":"stimulus/A6.jpg","key_press":65,"total":"exp","test_part":"train","correct_response":"A","trial_type":"categorize-image","trial_index":226,"time_elapsed":598599,"internal_node_id":"0.0-3.0-1.111"},{"rt":null,"stimulus":"<div style=\"font-size:60px;\">+</div>","key_press":null,"test_part":"fixation","trial_type":"html-keyboard-response","trial_index":227,"time_elapsed":599400,"internal_node_id":"0.0-3.0-0.112"},{"rt":2055,"correct":true,"stimulus":"stimulus/B12.jpg","key_press":66,"total":"exp","test_part":"train","correct_response":"B","trial_type":"categorize-image","trial_index":228,"time_elapsed":603458,"internal_node_id":"0.0-3.0-1.112"},{"rt":null,"stimulus":"<div style=\"font-size:60px;\">+</div>","key_press":null,"test_part":"fixation","trial_type":"html-keyboard-response","trial_index":229,"time_elapsed":604261,"internal_node_id":"0.0-3.0-0.113"},{"rt":2282,"correct":true,"stimulus":"stimulus/A5.jpg","key_press":65,"total":"exp","test_part":"train","correct_response":"A","trial_type":"categorize-image","trial_index":230,"time_elapsed":608544,"internal_node_id":"0.0-3.0-1.113"},{"rt":null,"stimulus":"<div style=\"font-size:60px;\">+</div>","key_press":null,"test_part":"fixation","trial_type":"html-keyboard-response","trial_index":231,"time_elapsed":609346,"internal_node_id":"0.0-3.0-0.114"},{"rt":15237,"correct":true,"stimulus":"stimulus/A2.jpg","key_press":65,"total":"exp","test_part":"train","correct_response":"A","trial_type":"categorize-image","trial_index":232,"time_elapsed":626585,"internal_node_id":"0.0-3.0-1.114"},{"rt":null,"stimulus":"<div style=\"font-size:60px;\">+</div>","key_press":null,"test_part":"fixation","trial_type":"html-keyboard-response","trial_index":233,"time_elapsed":627186,"internal_node_id":"0.0-3.0-0.115"},{"rt":1015,"correct":true,"stimulus":"stimulus/B9.jpg","key_press":66,"total":"exp","test_part":"train","correct_response":"B","trial_type":"categorize-image","trial_index":234,"time_elapsed":630204,"internal_node_id":"0.0-3.0-1.115"},{"rt":null,"stimulus":"<div style=\"font-size:60px;\">+</div>","key_press":null,"test_part":"fixation","trial_type":"html-keyboard-response","trial_index":235,"time_elapsed":631004,"internal_node_id":"0.0-3.0-0.116"},{"rt":2135,"correct":true,"stimulus":"stimulus/A4.jpg","key_press":65,"total":"exp","test_part":"train","correct_response":"A","trial_type":"categorize-image","trial_index":236,"time_elapsed":635142,"internal_node_id":"0.0-3.0-1.116"},{"rt":null,"stimulus":"<div style=\"font-size:60px;\">+</div>","key_press":null,"test_part":"fixation","trial_type":"html-keyboard-response","trial_index":237,"time_elapsed":635743,"internal_node_id":"0.0-3.0-0.117"},{"rt":4795,"correct":true,"stimulus":"stimulus/B10.jpg","key_press":66,"total":"exp","test_part":"train","correct_response":"B","trial_type":"categorize-image","trial_index":238,"time_elapsed":642540,"internal_node_id":"0.0-3.0-1.117"},{"rt":null,"stimulus":"<div style=\"font-size:60px;\">+</div>","key_press":null,"test_part":"fixation","trial_type":"html-keyboard-response","trial_index":239,"time_elapsed":643340,"internal_node_id":"0.0-3.0-0.118"},{"rt":956,"correct":true,"stimulus":"stimulus/A3.jpg","key_press":65,"total":"exp","test_part":"train","correct_response":"A","trial_type":"categorize-image","trial_index":240,"time_elapsed":646298,"internal_node_id":"0.0-3.0-1.118"},{"rt":null,"stimulus":"<div style=\"font-size:60px;\">+</div>","key_press":null,"test_part":"fixation","trial_type":"html-keyboard-response","trial_index":241,"time_elapsed":647100,"internal_node_id":"0.0-3.0-0.119"},{"rt":3381,"correct":true,"stimulus":"stimulus/B13.jpg","key_press":66,"total":"exp","test_part":"train","correct_response":"B","trial_type":"categorize-image","trial_index":242,"time_elapsed":652482,"internal_node_id":"0.0-3.0-1.119"},{"rt":null,"stimulus":"<div style=\"font-size:60px;\">+</div>","key_press":null,"test_part":"fixation","trial_type":"html-keyboard-response","trial_index":243,"time_elapsed":653083,"internal_node_id":"0.0-3.0-0.120"},{"rt":2721,"correct":true,"stimulus":"stimulus/B10.jpg","key_press":66,"total":"exp","test_part":"train","correct_response":"B","trial_type":"categorize-image","trial_index":244,"time_elapsed":657805,"internal_node_id":"0.0-3.0-1.120"},{"rt":null,"stimulus":"<div style=\"font-size:60px;\">+</div>","key_press":null,"test_part":"fixation","trial_type":"html-keyboard-response","trial_index":245,"time_elapsed":658406,"internal_node_id":"0.0-3.0-0.121"},{"rt":1409,"correct":true,"stimulus":"stimulus/B13.jpg","key_press":66,"total":"exp","test_part":"train","correct_response":"B","trial_type":"categorize-image","trial_index":246,"time_elapsed":661816,"internal_node_id":"0.0-3.0-1.121"},{"rt":null,"stimulus":"<div style=\"font-size:60px;\">+</div>","key_press":null,"test_part":"fixation","trial_type":"html-keyboard-response","trial_index":247,"time_elapsed":662617,"internal_node_id":"0.0-3.0-0.122"},{"rt":1658,"correct":true,"stimulus":"stimulus/A2.jpg","key_press":65,"total":"exp","test_part":"train","correct_response":"A","trial_type":"categorize-image","trial_index":248,"time_elapsed":666278,"internal_node_id":"0.0-3.0-1.122"},{"rt":null,"stimulus":"<div style=\"font-size:60px;\">+</div>","key_press":null,"test_part":"fixation","trial_type":"html-keyboard-response","trial_index":249,"time_elapsed":666879,"internal_node_id":"0.0-3.0-0.123"},{"rt":3151,"correct":true,"stimulus":"stimulus/A3.jpg","key_press":65,"total":"exp","test_part":"train","correct_response":"A","trial_type":"categorize-image","trial_index":250,"time_elapsed":672033,"internal_node_id":"0.0-3.0-1.123"},{"rt":null,"stimulus":"<div style=\"font-size:60px;\">+</div>","key_press":null,"test_part":"fixation","trial_type":"html-keyboard-response","trial_index":251,"time_elapsed":672634,"internal_node_id":"0.0-3.0-0.124"},{"rt":3363,"correct":true,"stimulus":"stimulus/A6.jpg","key_press":65,"total":"exp","test_part":"train","correct_response":"A","trial_type":"categorize-image","trial_index":252,"time_elapsed":678001,"internal_node_id":"0.0-3.0-1.124"},{"rt":null,"stimulus":"<div style=\"font-size:60px;\">+</div>","key_press":null,"test_part":"fixation","trial_type":"html-keyboard-response","trial_index":253,"time_elapsed":678601,"internal_node_id":"0.0-3.0-0.125"},{"rt":3098,"correct":true,"stimulus":"stimulus/B11.jpg","key_press":66,"total":"exp","test_part":"train","correct_response":"B","trial_type":"categorize-image","trial_index":254,"time_elapsed":683702,"internal_node_id":"0.0-3.0-1.125"},{"rt":null,"stimulus":"<div style=\"font-size:60px;\">+</div>","key_press":null,"test_part":"fixation","trial_type":"html-keyboard-response","trial_index":255,"time_elapsed":684303,"internal_node_id":"0.0-3.0-0.126"},{"rt":900,"correct":true,"stimulus":"stimulus/B9.jpg","key_press":66,"total":"exp","test_part":"train","correct_response":"B","trial_type":"categorize-image","trial_index":256,"time_elapsed":687205,"internal_node_id":"0.0-3.0-1.126"},{"rt":null,"stimulus":"<div style=\"font-size:60px;\">+</div>","key_press":null,"test_part":"fixation","trial_type":"html-keyboard-response","trial_index":257,"time_elapsed":688006,"internal_node_id":"0.0-3.0-0.127"},{"rt":1767,"correct":true,"stimulus":"stimulus/A5.jpg","key_press":65,"total":"exp","test_part":"train","correct_response":"A","trial_type":"categorize-image","trial_index":258,"time_elapsed":691776,"internal_node_id":"0.0-3.0-1.127"},{"rt":null,"stimulus":"<div style=\"font-size:60px;\">+</div>","key_press":null,"test_part":"fixation","trial_type":"html-keyboard-response","trial_index":259,"time_elapsed":692577,"internal_node_id":"0.0-3.0-0.128"},{"rt":2739,"correct":true,"stimulus":"stimulus/B12.jpg","key_press":66,"total":"exp","test_part":"train","correct_response":"B","trial_type":"categorize-image","trial_index":260,"time_elapsed":697319,"internal_node_id":"0.0-3.0-1.128"},{"rt":null,"stimulus":"<div style=\"font-size:60px;\">+</div>","key_press":null,"test_part":"fixation","trial_type":"html-keyboard-response","trial_index":261,"time_elapsed":698120,"internal_node_id":"0.0-3.0-0.129"},{"rt":2851,"correct":true,"stimulus":"stimulus/A4.jpg","key_press":65,"total":"exp","test_part":"train","correct_response":"A","trial_type":"categorize-image","trial_index":262,"time_elapsed":702974,"internal_node_id":"0.0-3.0-1.129"},{"rt":null,"stimulus":"<div style=\"font-size:60px;\">+</div>","key_press":null,"test_part":"fixation","trial_type":"html-keyboard-response","trial_index":263,"time_elapsed":703575,"internal_node_id":"0.0-3.0-0.130"},{"rt":2428,"correct":true,"stimulus":"stimulus/A5.jpg","key_press":65,"total":"exp","test_part":"train","correct_response":"A","trial_type":"categorize-image","trial_index":264,"time_elapsed":708005,"internal_node_id":"0.0-3.0-1.130"},{"rt":null,"stimulus":"<div style=\"font-size:60px;\">+</div>","key_press":null,"test_part":"fixation","trial_type":"html-keyboard-response","trial_index":265,"time_elapsed":708807,"internal_node_id":"0.0-3.0-0.131"},{"rt":4126,"correct":true,"stimulus":"stimulus/B11.jpg","key_press":66,"total":"exp","test_part":"train","correct_response":"B","trial_type":"categorize-image","trial_index":266,"time_elapsed":714934,"internal_node_id":"0.0-3.0-1.131"},{"rt":null,"stimulus":"<div style=\"font-size:60px;\">+</div>","key_press":null,"test_part":"fixation","trial_type":"html-keyboard-response","trial_index":267,"time_elapsed":715735,"internal_node_id":"0.0-3.0-0.132"},{"rt":2521,"correct":true,"stimulus":"stimulus/A3.jpg","key_press":65,"total":"exp","test_part":"train","correct_response":"A","trial_type":"categorize-image","trial_index":268,"time_elapsed":720259,"internal_node_id":"0.0-3.0-1.132"},{"rt":null,"stimulus":"<div style=\"font-size:60px;\">+</div>","key_press":null,"test_part":"fixation","trial_type":"html-keyboard-response","trial_index":269,"time_elapsed":721061,"internal_node_id":"0.0-3.0-0.133"},{"rt":2978,"correct":true,"stimulus":"stimulus/B13.jpg","key_press":66,"total":"exp","test_part":"train","correct_response":"B","trial_type":"categorize-image","trial_index":270,"time_elapsed":726041,"internal_node_id":"0.0-3.0-1.133"},{"rt":null,"stimulus":"<div style=\"font-size:60px;\">+</div>","key_press":null,"test_part":"fixation","trial_type":"html-keyboard-response","trial_index":271,"time_elapsed":726642,"internal_node_id":"0.0-3.0-0.134"},{"rt":1400,"correct":true,"stimulus":"stimulus/B9.jpg","key_press":66,"total":"exp","test_part":"train","correct_response":"B","trial_type":"categorize-image","trial_index":272,"time_elapsed":730045,"internal_node_id":"0.0-3.0-1.134"},{"rt":null,"stimulus":"<div style=\"font-size:60px;\">+</div>","key_press":null,"test_part":"fixation","trial_type":"html-keyboard-response","trial_index":273,"time_elapsed":730645,"internal_node_id":"0.0-3.0-0.135"},{"rt":1594,"correct":true,"stimulus":"stimulus/A4.jpg","key_press":65,"total":"exp","test_part":"train","correct_response":"A","trial_type":"categorize-image","trial_index":274,"time_elapsed":734242,"internal_node_id":"0.0-3.0-1.135"},{"rt":null,"stimulus":"<div style=\"font-size:60px;\">+</div>","key_press":null,"test_part":"fixation","trial_type":"html-keyboard-response","trial_index":275,"time_elapsed":735044,"internal_node_id":"0.0-3.0-0.136"},{"rt":5291,"correct":true,"stimulus":"stimulus/B10.jpg","key_press":66,"total":"exp","test_part":"train","correct_response":"B","trial_type":"categorize-image","trial_index":276,"time_elapsed":742336,"internal_node_id":"0.0-3.0-1.136"},{"rt":null,"stimulus":"<div style=\"font-size:60px;\">+</div>","key_press":null,"test_part":"fixation","trial_type":"html-keyboard-response","trial_index":277,"time_elapsed":742937,"internal_node_id":"0.0-3.0-0.137"},{"rt":9199,"correct":true,"stimulus":"stimulus/A6.jpg","key_press":65,"total":"exp","test_part":"train","correct_response":"A","trial_type":"categorize-image","trial_index":278,"time_elapsed":754139,"internal_node_id":"0.0-3.0-1.137"},{"rt":null,"stimulus":"<div style=\"font-size:60px;\">+</div>","key_press":null,"test_part":"fixation","trial_type":"html-keyboard-response","trial_index":279,"time_elapsed":754940,"internal_node_id":"0.0-3.0-0.138"},{"rt":1922,"correct":true,"stimulus":"stimulus/A2.jpg","key_press":65,"total":"exp","test_part":"train","correct_response":"A","trial_type":"categorize-image","trial_index":280,"time_elapsed":758865,"internal_node_id":"0.0-3.0-1.138"},{"rt":null,"stimulus":"<div style=\"font-size:60px;\">+</div>","key_press":null,"test_part":"fixation","trial_type":"html-keyboard-response","trial_index":281,"time_elapsed":759666,"internal_node_id":"0.0-3.0-0.139"},{"rt":1471,"correct":true,"stimulus":"stimulus/B12.jpg","key_press":66,"total":"exp","test_part":"train","correct_response":"B","trial_type":"categorize-image","trial_index":282,"time_elapsed":763138,"internal_node_id":"0.0-3.0-1.139"},{"rt":null,"stimulus":"<div style=\"font-size:60px;\">+</div>","key_press":null,"test_part":"fixation","trial_type":"html-keyboard-response","trial_index":283,"time_elapsed":763740,"internal_node_id":"0.0-3.0-0.140"},{"rt":2591,"correct":true,"stimulus":"stimulus/A2.jpg","key_press":65,"total":"exp","test_part":"train","correct_response":"A","trial_type":"categorize-image","trial_index":284,"time_elapsed":768333,"internal_node_id":"0.0-3.0-1.140"},{"rt":null,"stimulus":"<div style=\"font-size:60px;\">+</div>","key_press":null,"test_part":"fixation","trial_type":"html-keyboard-response","trial_index":285,"time_elapsed":768933,"internal_node_id":"0.0-3.0-0.141"},{"rt":5581,"correct":true,"stimulus":"stimulus/A6.jpg","key_press":65,"total":"exp","test_part":"train","correct_response":"A","trial_type":"categorize-image","trial_index":286,"time_elapsed":776516,"internal_node_id":"0.0-3.0-1.141"},{"rt":null,"stimulus":"<div style=\"font-size:60px;\">+</div>","key_press":null,"test_part":"fixation","trial_type":"html-keyboard-response","trial_index":287,"time_elapsed":777117,"internal_node_id":"0.0-3.0-0.142"},{"rt":6497,"correct":true,"stimulus":"stimulus/B12.jpg","key_press":66,"total":"exp","test_part":"train","correct_response":"B","trial_type":"categorize-image","trial_index":288,"time_elapsed":785617,"internal_node_id":"0.0-3.0-1.142"},{"rt":null,"stimulus":"<div style=\"font-size:60px;\">+</div>","key_press":null,"test_part":"fixation","trial_type":"html-keyboard-response","trial_index":289,"time_elapsed":786218,"internal_node_id":"0.0-3.0-0.143"},{"rt":2142,"correct":true,"stimulus":"stimulus/A5.jpg","key_press":65,"total":"exp","test_part":"train","correct_response":"A","trial_type":"categorize-image","trial_index":290,"time_elapsed":790363,"internal_node_id":"0.0-3.0-1.143"},{"rt":null,"stimulus":"<div style=\"font-size:60px;\">+</div>","key_press":null,"test_part":"fixation","trial_type":"html-keyboard-response","trial_index":291,"time_elapsed":791163,"internal_node_id":"0.0-3.0-0.144"},{"rt":1092,"correct":true,"stimulus":"stimulus/B9.jpg","key_press":66,"total":"exp","test_part":"train","correct_response":"B","trial_type":"categorize-image","trial_index":292,"time_elapsed":794257,"internal_node_id":"0.0-3.0-1.144"},{"rt":null,"stimulus":"<div style=\"font-size:60px;\">+</div>","key_press":null,"test_part":"fixation","trial_type":"html-keyboard-response","trial_index":293,"time_elapsed":794858,"internal_node_id":"0.0-3.0-0.145"},{"rt":5062,"correct":true,"stimulus":"stimulus/A4.jpg","key_press":65,"total":"exp","test_part":"train","correct_response":"A","trial_type":"categorize-image","trial_index":294,"time_elapsed":801923,"internal_node_id":"0.0-3.0-1.145"},{"rt":null,"stimulus":"<div style=\"font-size:60px;\">+</div>","key_press":null,"test_part":"fixation","trial_type":"html-keyboard-response","trial_index":295,"time_elapsed":802724,"internal_node_id":"0.0-3.0-0.146"},{"rt":7707,"correct":true,"stimulus":"stimulus/B10.jpg","key_press":66,"total":"exp","test_part":"train","correct_response":"B","trial_type":"categorize-image","trial_index":296,"time_elapsed":812434,"internal_node_id":"0.0-3.0-1.146"},{"rt":null,"stimulus":"<div style=\"font-size:60px;\">+</div>","key_press":null,"test_part":"fixation","trial_type":"html-keyboard-response","trial_index":297,"time_elapsed":813234,"internal_node_id":"0.0-3.0-0.147"},{"rt":2069,"correct":true,"stimulus":"stimulus/B11.jpg","key_press":66,"total":"exp","test_part":"train","correct_response":"B","trial_type":"categorize-image","trial_index":298,"time_elapsed":817306,"internal_node_id":"0.0-3.0-1.147"},{"rt":null,"stimulus":"<div style=\"font-size:60px;\">+</div>","key_press":null,"test_part":"fixation","trial_type":"html-keyboard-response","trial_index":299,"time_elapsed":818107,"internal_node_id":"0.0-3.0-0.148"},{"rt":3777,"correct":true,"stimulus":"stimulus/B13.jpg","key_press":66,"total":"exp","test_part":"train","correct_response":"B","trial_type":"categorize-image","trial_index":300,"time_elapsed":823885,"internal_node_id":"0.0-3.0-1.148"},{"rt":null,"stimulus":"<div style=\"font-size:60px;\">+</div>","key_press":null,"test_part":"fixation","trial_type":"html-keyboard-response","trial_index":301,"time_elapsed":824486,"internal_node_id":"0.0-3.0-0.149"},{"rt":2601,"correct":true,"stimulus":"stimulus/A3.jpg","key_press":65,"total":"exp","test_part":"train","correct_response":"A","trial_type":"categorize-image","trial_index":302,"time_elapsed":829089,"internal_node_id":"0.0-3.0-1.149"},{"rt":null,"stimulus":"<div style=\"font-size:60px;\">+</div>","key_press":null,"test_part":"fixation","trial_type":"html-keyboard-response","trial_index":303,"time_elapsed":829890,"internal_node_id":"0.0-3.0-0.150"},{"rt":1922,"correct":false,"stimulus":"stimulus/A4.jpg","key_press":66,"total":"exp","test_part":"train","correct_response":"A","trial_type":"categorize-image","trial_index":304,"time_elapsed":833813,"internal_node_id":"0.0-3.0-1.150"},{"rt":null,"stimulus":"<div style=\"font-size:60px;\">+</div>","key_press":null,"test_part":"fixation","trial_type":"html-keyboard-response","trial_index":305,"time_elapsed":834415,"internal_node_id":"0.0-3.0-0.151"},{"rt":5354,"correct":true,"stimulus":"stimulus/A2.jpg","key_press":65,"total":"exp","test_part":"train","correct_response":"A","trial_type":"categorize-image","trial_index":306,"time_elapsed":841772,"internal_node_id":"0.0-3.0-1.151"},{"rt":null,"stimulus":"<div style=\"font-size:60px;\">+</div>","key_press":null,"test_part":"fixation","trial_type":"html-keyboard-response","trial_index":307,"time_elapsed":842574,"internal_node_id":"0.0-3.0-0.152"},{"rt":1837,"correct":true,"stimulus":"stimulus/B13.jpg","key_press":66,"total":"exp","test_part":"train","correct_response":"B","trial_type":"categorize-image","trial_index":308,"time_elapsed":846413,"internal_node_id":"0.0-3.0-1.152"},{"rt":null,"stimulus":"<div style=\"font-size:60px;\">+</div>","key_press":null,"test_part":"fixation","trial_type":"html-keyboard-response","trial_index":309,"time_elapsed":847214,"internal_node_id":"0.0-3.0-0.153"},{"rt":11048,"correct":true,"stimulus":"stimulus/A6.jpg","key_press":65,"total":"exp","test_part":"train","correct_response":"A","trial_type":"categorize-image","trial_index":310,"time_elapsed":860264,"internal_node_id":"0.0-3.0-1.153"},{"rt":null,"stimulus":"<div style=\"font-size:60px;\">+</div>","key_press":null,"test_part":"fixation","trial_type":"html-keyboard-response","trial_index":311,"time_elapsed":861065,"internal_node_id":"0.0-3.0-0.154"},{"rt":2463,"correct":true,"stimulus":"stimulus/B10.jpg","key_press":66,"total":"exp","test_part":"train","correct_response":"B","trial_type":"categorize-image","trial_index":312,"time_elapsed":865531,"internal_node_id":"0.0-3.0-1.154"},{"rt":null,"stimulus":"<div style=\"font-size:60px;\">+</div>","key_press":null,"test_part":"fixation","trial_type":"html-keyboard-response","trial_index":313,"time_elapsed":866131,"internal_node_id":"0.0-3.0-0.155"},{"rt":1132,"correct":true,"stimulus":"stimulus/B12.jpg","key_press":66,"total":"exp","test_part":"train","correct_response":"B","trial_type":"categorize-image","trial_index":314,"time_elapsed":869265,"internal_node_id":"0.0-3.0-1.155"},{"rt":null,"stimulus":"<div style=\"font-size:60px;\">+</div>","key_press":null,"test_part":"fixation","trial_type":"html-keyboard-response","trial_index":315,"time_elapsed":870066,"internal_node_id":"0.0-3.0-0.156"},{"rt":2491,"correct":true,"stimulus":"stimulus/A3.jpg","key_press":65,"total":"exp","test_part":"train","correct_response":"A","trial_type":"categorize-image","trial_index":316,"time_elapsed":874560,"internal_node_id":"0.0-3.0-1.156"},{"rt":null,"stimulus":"<div style=\"font-size:60px;\">+</div>","key_press":null,"test_part":"fixation","trial_type":"html-keyboard-response","trial_index":317,"time_elapsed":875361,"internal_node_id":"0.0-3.0-0.157"},{"rt":2478,"correct":true,"stimulus":"stimulus/B11.jpg","key_press":66,"total":"exp","test_part":"train","correct_response":"B","trial_type":"categorize-image","trial_index":318,"time_elapsed":879841,"internal_node_id":"0.0-3.0-1.157"},{"rt":null,"stimulus":"<div style=\"font-size:60px;\">+</div>","key_press":null,"test_part":"fixation","trial_type":"html-keyboard-response","trial_index":319,"time_elapsed":880442,"internal_node_id":"0.0-3.0-0.158"},{"rt":1267,"correct":true,"stimulus":"stimulus/B9.jpg","key_press":66,"total":"exp","test_part":"train","correct_response":"B","trial_type":"categorize-image","trial_index":320,"time_elapsed":883711,"internal_node_id":"0.0-3.0-1.158"},{"rt":null,"stimulus":"<div style=\"font-size:60px;\">+</div>","key_press":null,"test_part":"fixation","trial_type":"html-keyboard-response","trial_index":321,"time_elapsed":884312,"internal_node_id":"0.0-3.0-0.159"},{"rt":1481,"correct":true,"stimulus":"stimulus/A5.jpg","key_press":65,"total":"exp","test_part":"train","correct_response":"A","trial_type":"categorize-image","trial_index":322,"time_elapsed":887796,"internal_node_id":"0.0-3.0-1.159"},{"rt":null,"stimulus":"<div style=\"font-size:60px;\">+</div>","key_press":null,"test_part":"fixation","trial_type":"html-keyboard-response","trial_index":323,"time_elapsed":888597,"internal_node_id":"0.0-3.0-0.160"},{"rt":1467,"correct":true,"stimulus":"stimulus/B9.jpg","key_press":66,"total":"exp","test_part":"train","correct_response":"B","trial_type":"categorize-image","trial_index":324,"time_elapsed":892067,"internal_node_id":"0.0-3.0-1.160"},{"rt":null,"stimulus":"<div style=\"font-size:60px;\">+</div>","key_press":null,"test_part":"fixation","trial_type":"html-keyboard-response","trial_index":325,"time_elapsed":892668,"internal_node_id":"0.0-3.0-0.161"},{"rt":2371,"correct":true,"stimulus":"stimulus/A2.jpg","key_press":65,"total":"exp","test_part":"train","correct_response":"A","trial_type":"categorize-image","trial_index":326,"time_elapsed":897040,"internal_node_id":"0.0-3.0-1.161"},{"rt":null,"stimulus":"<div style=\"font-size:60px;\">+</div>","key_press":null,"test_part":"fixation","trial_type":"html-keyboard-response","trial_index":327,"time_elapsed":897641,"internal_node_id":"0.0-3.0-0.162"},{"rt":2707,"correct":true,"stimulus":"stimulus/B10.jpg","key_press":66,"total":"exp","test_part":"train","correct_response":"B","trial_type":"categorize-image","trial_index":328,"time_elapsed":902349,"internal_node_id":"0.0-3.0-1.162"},{"rt":null,"stimulus":"<div style=\"font-size:60px;\">+</div>","key_press":null,"test_part":"fixation","trial_type":"html-keyboard-response","trial_index":329,"time_elapsed":902950,"internal_node_id":"0.0-3.0-0.163"},{"rt":2646,"correct":true,"stimulus":"stimulus/A5.jpg","key_press":65,"total":"exp","test_part":"train","correct_response":"A","trial_type":"categorize-image","trial_index":330,"time_elapsed":907598,"internal_node_id":"0.0-3.0-1.163"},{"rt":null,"stimulus":"<div style=\"font-size:60px;\">+</div>","key_press":null,"test_part":"fixation","trial_type":"html-keyboard-response","trial_index":331,"time_elapsed":908198,"internal_node_id":"0.0-3.0-0.164"},{"rt":4133,"correct":true,"stimulus":"stimulus/B13.jpg","key_press":66,"total":"exp","test_part":"train","correct_response":"B","trial_type":"categorize-image","trial_index":332,"time_elapsed":914333,"internal_node_id":"0.0-3.0-1.164"},{"rt":null,"stimulus":"<div style=\"font-size:60px;\">+</div>","key_press":null,"test_part":"fixation","trial_type":"html-keyboard-response","trial_index":333,"time_elapsed":914934,"internal_node_id":"0.0-3.0-0.165"},{"rt":1209,"correct":true,"stimulus":"stimulus/A4.jpg","key_press":65,"total":"exp","test_part":"train","correct_response":"A","trial_type":"categorize-image","trial_index":334,"time_elapsed":918146,"internal_node_id":"0.0-3.0-1.165"},{"rt":null,"stimulus":"<div style=\"font-size:60px;\">+</div>","key_press":null,"test_part":"fixation","trial_type":"html-keyboard-response","trial_index":335,"time_elapsed":918947,"internal_node_id":"0.0-3.0-0.166"},{"rt":1101,"correct":true,"stimulus":"stimulus/B11.jpg","key_press":66,"total":"exp","test_part":"train","correct_response":"B","trial_type":"categorize-image","trial_index":336,"time_elapsed":922051,"internal_node_id":"0.0-3.0-1.166"},{"rt":null,"stimulus":"<div style=\"font-size:60px;\">+</div>","key_press":null,"test_part":"fixation","trial_type":"html-keyboard-response","trial_index":337,"time_elapsed":922652,"internal_node_id":"0.0-3.0-0.167"},{"rt":789,"correct":true,"stimulus":"stimulus/B12.jpg","key_press":66,"total":"exp","test_part":"train","correct_response":"B","trial_type":"categorize-image","trial_index":338,"time_elapsed":925445,"internal_node_id":"0.0-3.0-1.167"},{"rt":null,"stimulus":"<div style=\"font-size:60px;\">+</div>","key_press":null,"test_part":"fixation","trial_type":"html-keyboard-response","trial_index":339,"time_elapsed":926246,"internal_node_id":"0.0-3.0-0.168"},{"rt":1317,"correct":true,"stimulus":"stimulus/A3.jpg","key_press":65,"total":"exp","test_part":"train","correct_response":"A","trial_type":"categorize-image","trial_index":340,"time_elapsed":929564,"internal_node_id":"0.0-3.0-1.168"},{"rt":null,"stimulus":"<div style=\"font-size:60px;\">+</div>","key_press":null,"test_part":"fixation","trial_type":"html-keyboard-response","trial_index":341,"time_elapsed":930366,"internal_node_id":"0.0-3.0-0.169"},{"rt":3175,"correct":false,"stimulus":"stimulus/A6.jpg","key_press":66,"total":"exp","test_part":"train","correct_response":"A","trial_type":"categorize-image","trial_index":342,"time_elapsed":935543,"internal_node_id":"0.0-3.0-1.169"},{"rt":null,"stimulus":"<div style=\"font-size:60px;\">+</div>","key_press":null,"test_part":"fixation","trial_type":"html-keyboard-response","trial_index":343,"time_elapsed":936345,"internal_node_id":"0.0-3.0-0.170"},{"rt":1979,"correct":true,"stimulus":"stimulus/A3.jpg","key_press":65,"total":"exp","test_part":"train","correct_response":"A","trial_type":"categorize-image","trial_index":344,"time_elapsed":940326,"internal_node_id":"0.0-3.0-1.170"},{"rt":null,"stimulus":"<div style=\"font-size:60px;\">+</div>","key_press":null,"test_part":"fixation","trial_type":"html-keyboard-response","trial_index":345,"time_elapsed":940927,"internal_node_id":"0.0-3.0-0.171"},{"rt":9015,"correct":true,"stimulus":"stimulus/B13.jpg","key_press":66,"total":"exp","test_part":"train","correct_response":"B","trial_type":"categorize-image","trial_index":346,"time_elapsed":951943,"internal_node_id":"0.0-3.0-1.171"},{"rt":null,"stimulus":"<div style=\"font-size:60px;\">+</div>","key_press":null,"test_part":"fixation","trial_type":"html-keyboard-response","trial_index":347,"time_elapsed":952745,"internal_node_id":"0.0-3.0-0.172"},{"rt":949,"correct":true,"stimulus":"stimulus/A2.jpg","key_press":65,"total":"exp","test_part":"train","correct_response":"A","trial_type":"categorize-image","trial_index":348,"time_elapsed":955697,"internal_node_id":"0.0-3.0-1.172"},{"rt":null,"stimulus":"<div style=\"font-size:60px;\">+</div>","key_press":null,"test_part":"fixation","trial_type":"html-keyboard-response","trial_index":349,"time_elapsed":956499,"internal_node_id":"0.0-3.0-0.173"},{"rt":3682,"correct":true,"stimulus":"stimulus/B10.jpg","key_press":66,"total":"exp","test_part":"train","correct_response":"B","trial_type":"categorize-image","trial_index":350,"time_elapsed":962182,"internal_node_id":"0.0-3.0-1.173"},{"rt":null,"stimulus":"<div style=\"font-size:60px;\">+</div>","key_press":null,"test_part":"fixation","trial_type":"html-keyboard-response","trial_index":351,"time_elapsed":962783,"internal_node_id":"0.0-3.0-0.174"},{"rt":1267,"correct":true,"stimulus":"stimulus/A5.jpg","key_press":65,"total":"exp","test_part":"train","correct_response":"A","trial_type":"categorize-image","trial_index":352,"time_elapsed":966052,"internal_node_id":"0.0-3.0-1.174"},{"rt":null,"stimulus":"<div style=\"font-size:60px;\">+</div>","key_press":null,"test_part":"fixation","trial_type":"html-keyboard-response","trial_index":353,"time_elapsed":966853,"internal_node_id":"0.0-3.0-0.175"},{"rt":1151,"correct":false,"stimulus":"stimulus/A4.jpg","key_press":66,"total":"exp","test_part":"train","correct_response":"A","trial_type":"categorize-image","trial_index":354,"time_elapsed":970006,"internal_node_id":"0.0-3.0-1.175"},{"rt":null,"stimulus":"<div style=\"font-size:60px;\">+</div>","key_press":null,"test_part":"fixation","trial_type":"html-keyboard-response","trial_index":355,"time_elapsed":970807,"internal_node_id":"0.0-3.0-0.176"},{"rt":1589,"correct":true,"stimulus":"stimulus/B9.jpg","key_press":66,"total":"exp","test_part":"train","correct_response":"B","trial_type":"categorize-image","trial_index":356,"time_elapsed":974398,"internal_node_id":"0.0-3.0-1.176"},{"rt":null,"stimulus":"<div style=\"font-size:60px;\">+</div>","key_press":null,"test_part":"fixation","trial_type":"html-keyboard-response","trial_index":357,"time_elapsed":974999,"internal_node_id":"0.0-3.0-0.177"},{"rt":977,"correct":true,"stimulus":"stimulus/B12.jpg","key_press":66,"total":"exp","test_part":"train","correct_response":"B","trial_type":"categorize-image","trial_index":358,"time_elapsed":977978,"internal_node_id":"0.0-3.0-1.177"},{"rt":null,"stimulus":"<div style=\"font-size:60px;\">+</div>","key_press":null,"test_part":"fixation","trial_type":"html-keyboard-response","trial_index":359,"time_elapsed":978779,"internal_node_id":"0.0-3.0-0.178"},{"rt":1388,"correct":true,"stimulus":"stimulus/A6.jpg","key_press":65,"total":"exp","test_part":"train","correct_response":"A","trial_type":"categorize-image","trial_index":360,"time_elapsed":982168,"internal_node_id":"0.0-3.0-1.178"},{"rt":null,"stimulus":"<div style=\"font-size:60px;\">+</div>","key_press":null,"test_part":"fixation","trial_type":"html-keyboard-response","trial_index":361,"time_elapsed":982769,"internal_node_id":"0.0-3.0-0.179"},{"rt":1173,"correct":true,"stimulus":"stimulus/B11.jpg","key_press":66,"total":"exp","test_part":"train","correct_response":"B","trial_type":"categorize-image","trial_index":362,"time_elapsed":985944,"internal_node_id":"0.0-3.0-1.179"},{"rt":11518,"stimulus":"<p>This is the testing phase of the experiment. Feedback will NOT be provided in this session. The total number of trials in this phase are 60.<br>Press any key to begin.</p>","key_press":32,"trial_type":"html-keyboard-response","trial_index":363,"time_elapsed":997464,"internal_node_id":"0.0-4.0"},{"rt":null,"stimulus":"<div style=\"font-size:60px;\">+</div>","key_press":null,"test_part":"fixation","trial_type":"html-keyboard-response","trial_index":364,"time_elapsed":998266,"internal_node_id":"0.0-5.0-0.0"},{"rt":2170,"correct":true,"stimulus":"stimulus/B8.jpg","key_press":66,"total":"exp","test_part":"test_prototype","correct_response":"B","trial_type":"categorize-image","trial_index":365,"time_elapsed":1000439,"internal_node_id":"0.0-5.0-1.0"},{"rt":null,"stimulus":"<div style=\"font-size:60px;\">+</div>","key_press":null,"test_part":"fixation","trial_type":"html-keyboard-response","trial_index":366,"time_elapsed":1001040,"internal_node_id":"0.0-5.0-0.1"},{"rt":1906,"correct":true,"stimulus":"stimulus/A1.jpg","key_press":65,"total":"exp","test_part":"test_prototype","correct_response":"A","trial_type":"categorize-image","trial_index":367,"time_elapsed":1002950,"internal_node_id":"0.0-5.0-1.1"},{"rt":null,"stimulus":"<div style=\"font-size:60px;\">+</div>","key_press":null,"test_part":"fixation","trial_type":"html-keyboard-response","trial_index":368,"time_elapsed":1003551,"internal_node_id":"0.0-5.0-0.2"},{"rt":2324,"correct":true,"stimulus":"stimulus/A7.jpg","key_press":65,"total":"exp","test_part":"test_unseen","correct_response":"A","trial_type":"categorize-image","trial_index":369,"time_elapsed":1005877,"internal_node_id":"0.0-5.0-1.2"},{"rt":null,"stimulus":"<div style=\"font-size:60px;\">+</div>","key_press":null,"test_part":"fixation","trial_type":"html-keyboard-response","trial_index":370,"time_elapsed":1006678,"internal_node_id":"0.0-5.0-0.3"},{"rt":1086,"correct":true,"stimulus":"stimulus/B12.jpg","key_press":66,"total":"exp","test_part":"test_seen","correct_response":"B","trial_type":"categorize-image","trial_index":371,"time_elapsed":1007768,"internal_node_id":"0.0-5.0-1.3"},{"rt":null,"stimulus":"<div style=\"font-size:60px;\">+</div>","key_press":null,"test_part":"fixation","trial_type":"html-keyboard-response","trial_index":372,"time_elapsed":1008569,"internal_node_id":"0.0-5.0-0.4"},{"rt":1886,"correct":false,"stimulus":"stimulus/B14.jpg","key_press":65,"total":"exp","test_part":"test_unseen","correct_response":"B","trial_type":"categorize-image","trial_index":373,"time_elapsed":1010458,"internal_node_id":"0.0-5.0-1.4"},{"rt":null,"stimulus":"<div style=\"font-size:60px;\">+</div>","key_press":null,"test_part":"fixation","trial_type":"html-keyboard-response","trial_index":374,"time_elapsed":1011259,"internal_node_id":"0.0-5.0-0.5"},{"rt":7431,"correct":true,"stimulus":"stimulus/A4.jpg","key_press":65,"total":"exp","test_part":"test_seen","correct_response":"A","trial_type":"categorize-image","trial_index":375,"time_elapsed":1018693,"internal_node_id":"0.0-5.0-1.5"},{"rt":null,"stimulus":"<div style=\"font-size:60px;\">+</div>","key_press":null,"test_part":"fixation","trial_type":"html-keyboard-response","trial_index":376,"time_elapsed":1019494,"internal_node_id":"0.0-5.0-0.6"},{"rt":1489,"correct":true,"stimulus":"stimulus/A7.jpg","key_press":65,"total":"exp","test_part":"test_unseen","correct_response":"A","trial_type":"categorize-image","trial_index":377,"time_elapsed":1020986,"internal_node_id":"0.0-5.0-1.6"},{"rt":null,"stimulus":"<div style=\"font-size:60px;\">+</div>","key_press":null,"test_part":"fixation","trial_type":"html-keyboard-response","trial_index":378,"time_elapsed":1021587,"internal_node_id":"0.0-5.0-0.7"},{"rt":3865,"correct":false,"stimulus":"stimulus/B14.jpg","key_press":65,"total":"exp","test_part":"test_unseen","correct_response":"B","trial_type":"categorize-image","trial_index":379,"time_elapsed":1025454,"internal_node_id":"0.0-5.0-1.7"},{"rt":null,"stimulus":"<div style=\"font-size:60px;\">+</div>","key_press":null,"test_part":"fixation","trial_type":"html-keyboard-response","trial_index":380,"time_elapsed":1026255,"internal_node_id":"0.0-5.0-0.8"},{"rt":1374,"correct":true,"stimulus":"stimulus/A1.jpg","key_press":65,"total":"exp","test_part":"test_prototype","correct_response":"A","trial_type":"categorize-image","trial_index":381,"time_elapsed":1027632,"internal_node_id":"0.0-5.0-1.8"},{"rt":null,"stimulus":"<div style=\"font-size:60px;\">+</div>","key_press":null,"test_part":"fixation","trial_type":"html-keyboard-response","trial_index":382,"time_elapsed":1028432,"internal_node_id":"0.0-5.0-0.9"},{"rt":849,"correct":true,"stimulus":"stimulus/B12.jpg","key_press":66,"total":"exp","test_part":"test_seen","correct_response":"B","trial_type":"categorize-image","trial_index":383,"time_elapsed":1029284,"internal_node_id":"0.0-5.0-1.9"},{"rt":null,"stimulus":"<div style=\"font-size:60px;\">+</div>","key_press":null,"test_part":"fixation","trial_type":"html-keyboard-response","trial_index":384,"time_elapsed":1029886,"internal_node_id":"0.0-5.0-0.10"},{"rt":1043,"correct":true,"stimulus":"stimulus/A4.jpg","key_press":65,"total":"exp","test_part":"test_seen","correct_response":"A","trial_type":"categorize-image","trial_index":385,"time_elapsed":1030929,"internal_node_id":"0.0-5.0-1.10"},{"rt":null,"stimulus":"<div style=\"font-size:60px;\">+</div>","key_press":null,"test_part":"fixation","trial_type":"html-keyboard-response","trial_index":386,"time_elapsed":1031731,"internal_node_id":"0.0-5.0-0.11"},{"rt":845,"correct":true,"stimulus":"stimulus/B8.jpg","key_press":66,"total":"exp","test_part":"test_prototype","correct_response":"B","trial_type":"categorize-image","trial_index":387,"time_elapsed":1032577,"internal_node_id":"0.0-5.0-1.11"},{"rt":null,"stimulus":"<div style=\"font-size:60px;\">+</div>","key_press":null,"test_part":"fixation","trial_type":"html-keyboard-response","trial_index":388,"time_elapsed":1033178,"internal_node_id":"0.0-5.0-0.12"},{"rt":1687,"correct":true,"stimulus":"stimulus/A7.jpg","key_press":65,"total":"exp","test_part":"test_unseen","correct_response":"A","trial_type":"categorize-image","trial_index":389,"time_elapsed":1034868,"internal_node_id":"0.0-5.0-1.12"},{"rt":null,"stimulus":"<div style=\"font-size:60px;\">+</div>","key_press":null,"test_part":"fixation","trial_type":"html-keyboard-response","trial_index":390,"time_elapsed":1035668,"internal_node_id":"0.0-5.0-0.13"},{"rt":1874,"correct":true,"stimulus":"stimulus/A4.jpg","key_press":65,"total":"exp","test_part":"test_seen","correct_response":"A","trial_type":"categorize-image","trial_index":391,"time_elapsed":1037545,"internal_node_id":"0.0-5.0-1.13"},{"rt":null,"stimulus":"<div style=\"font-size:60px;\">+</div>","key_press":null,"test_part":"fixation","trial_type":"html-keyboard-response","trial_index":392,"time_elapsed":1038146,"internal_node_id":"0.0-5.0-0.14"},{"rt":2119,"correct":true,"stimulus":"stimulus/B8.jpg","key_press":66,"total":"exp","test_part":"test_prototype","correct_response":"B","trial_type":"categorize-image","trial_index":393,"time_elapsed":1040268,"internal_node_id":"0.0-5.0-1.14"},{"rt":null,"stimulus":"<div style=\"font-size:60px;\">+</div>","key_press":null,"test_part":"fixation","trial_type":"html-keyboard-response","trial_index":394,"time_elapsed":1040868,"internal_node_id":"0.0-5.0-0.15"},{"rt":6637,"correct":true,"stimulus":"stimulus/B14.jpg","key_press":66,"total":"exp","test_part":"test_unseen","correct_response":"B","trial_type":"categorize-image","trial_index":395,"time_elapsed":1047507,"internal_node_id":"0.0-5.0-1.15"},{"rt":null,"stimulus":"<div style=\"font-size:60px;\">+</div>","key_press":null,"test_part":"fixation","trial_type":"html-keyboard-response","trial_index":396,"time_elapsed":1048309,"internal_node_id":"0.0-5.0-0.16"},{"rt":972,"correct":true,"stimulus":"stimulus/A1.jpg","key_press":65,"total":"exp","test_part":"test_prototype","correct_response":"A","trial_type":"categorize-image","trial_index":397,"time_elapsed":1049283,"internal_node_id":"0.0-5.0-1.16"},{"rt":null,"stimulus":"<div style=\"font-size:60px;\">+</div>","key_press":null,"test_part":"fixation","trial_type":"html-keyboard-response","trial_index":398,"time_elapsed":1049884,"internal_node_id":"0.0-5.0-0.17"},{"rt":1287,"correct":true,"stimulus":"stimulus/B12.jpg","key_press":66,"total":"exp","test_part":"test_seen","correct_response":"B","trial_type":"categorize-image","trial_index":399,"time_elapsed":1051174,"internal_node_id":"0.0-5.0-1.17"},{"rt":null,"stimulus":"<div style=\"font-size:60px;\">+</div>","key_press":null,"test_part":"fixation","trial_type":"html-keyboard-response","trial_index":400,"time_elapsed":1051775,"internal_node_id":"0.0-5.0-0.18"},{"rt":2384,"correct":true,"stimulus":"stimulus/A7.jpg","key_press":65,"total":"exp","test_part":"test_unseen","correct_response":"A","trial_type":"categorize-image","trial_index":401,"time_elapsed":1054162,"internal_node_id":"0.0-5.0-1.18"},{"rt":null,"stimulus":"<div style=\"font-size:60px;\">+</div>","key_press":null,"test_part":"fixation","trial_type":"html-keyboard-response","trial_index":402,"time_elapsed":1054764,"internal_node_id":"0.0-5.0-0.19"},{"rt":2145,"correct":true,"stimulus":"stimulus/A4.jpg","key_press":65,"total":"exp","test_part":"test_seen","correct_response":"A","trial_type":"categorize-image","trial_index":403,"time_elapsed":1056909,"internal_node_id":"0.0-5.0-1.19"},{"rt":null,"stimulus":"<div style=\"font-size:60px;\">+</div>","key_press":null,"test_part":"fixation","trial_type":"html-keyboard-response","trial_index":404,"time_elapsed":1057711,"internal_node_id":"0.0-5.0-0.20"},{"rt":4817,"correct":false,"stimulus":"stimulus/B14.jpg","key_press":65,"total":"exp","test_part":"test_unseen","correct_response":"B","trial_type":"categorize-image","trial_index":405,"time_elapsed":1062529,"internal_node_id":"0.0-5.0-1.20"},{"rt":null,"stimulus":"<div style=\"font-size:60px;\">+</div>","key_press":null,"test_part":"fixation","trial_type":"html-keyboard-response","trial_index":406,"time_elapsed":1063129,"internal_node_id":"0.0-5.0-0.21"},{"rt":879,"correct":true,"stimulus":"stimulus/A1.jpg","key_press":65,"total":"exp","test_part":"test_prototype","correct_response":"A","trial_type":"categorize-image","trial_index":407,"time_elapsed":1064011,"internal_node_id":"0.0-5.0-1.21"},{"rt":null,"stimulus":"<div style=\"font-size:60px;\">+</div>","key_press":null,"test_part":"fixation","trial_type":"html-keyboard-response","trial_index":408,"time_elapsed":1064612,"internal_node_id":"0.0-5.0-0.22"},{"rt":3894,"correct":true,"stimulus":"stimulus/B8.jpg","key_press":66,"total":"exp","test_part":"test_prototype","correct_response":"B","trial_type":"categorize-image","trial_index":409,"time_elapsed":1068507,"internal_node_id":"0.0-5.0-1.22"},{"rt":null,"stimulus":"<div style=\"font-size:60px;\">+</div>","key_press":null,"test_part":"fixation","trial_type":"html-keyboard-response","trial_index":410,"time_elapsed":1069309,"internal_node_id":"0.0-5.0-0.23"},{"rt":2080,"correct":true,"stimulus":"stimulus/B12.jpg","key_press":66,"total":"exp","test_part":"test_seen","correct_response":"B","trial_type":"categorize-image","trial_index":411,"time_elapsed":1071390,"internal_node_id":"0.0-5.0-1.23"},{"rt":null,"stimulus":"<div style=\"font-size:60px;\">+</div>","key_press":null,"test_part":"fixation","trial_type":"html-keyboard-response","trial_index":412,"time_elapsed":1072190,"internal_node_id":"0.0-5.0-0.24"},{"rt":2924,"correct":true,"stimulus":"stimulus/B8.jpg","key_press":66,"total":"exp","test_part":"test_prototype","correct_response":"B","trial_type":"categorize-image","trial_index":413,"time_elapsed":1075116,"internal_node_id":"0.0-5.0-1.24"},{"rt":null,"stimulus":"<div style=\"font-size:60px;\">+</div>","key_press":null,"test_part":"fixation","trial_type":"html-keyboard-response","trial_index":414,"time_elapsed":1075717,"internal_node_id":"0.0-5.0-0.25"},{"rt":870,"correct":false,"stimulus":"stimulus/B14.jpg","key_press":65,"total":"exp","test_part":"test_unseen","correct_response":"B","trial_type":"categorize-image","trial_index":415,"time_elapsed":1076589,"internal_node_id":"0.0-5.0-1.25"},{"rt":null,"stimulus":"<div style=\"font-size:60px;\">+</div>","key_press":null,"test_part":"fixation","trial_type":"html-keyboard-response","trial_index":416,"time_elapsed":1077389,"internal_node_id":"0.0-5.0-0.26"},{"rt":1483,"correct":true,"stimulus":"stimulus/A7.jpg","key_press":65,"total":"exp","test_part":"test_unseen","correct_response":"A","trial_type":"categorize-image","trial_index":417,"time_elapsed":1078874,"internal_node_id":"0.0-5.0-1.26"},{"rt":null,"stimulus":"<div style=\"font-size:60px;\">+</div>","key_press":null,"test_part":"fixation","trial_type":"html-keyboard-response","trial_index":418,"time_elapsed":1079676,"internal_node_id":"0.0-5.0-0.27"},{"rt":6288,"correct":true,"stimulus":"stimulus/A4.jpg","key_press":65,"total":"exp","test_part":"test_seen","correct_response":"A","trial_type":"categorize-image","trial_index":419,"time_elapsed":1085965,"internal_node_id":"0.0-5.0-1.27"},{"rt":null,"stimulus":"<div style=\"font-size:60px;\">+</div>","key_press":null,"test_part":"fixation","trial_type":"html-keyboard-response","trial_index":420,"time_elapsed":1086566,"internal_node_id":"0.0-5.0-0.28"},{"rt":5879,"correct":true,"stimulus":"stimulus/B12.jpg","key_press":66,"total":"exp","test_part":"test_seen","correct_response":"B","trial_type":"categorize-image","trial_index":421,"time_elapsed":1092449,"internal_node_id":"0.0-5.0-1.28"},{"rt":null,"stimulus":"<div style=\"font-size:60px;\">+</div>","key_press":null,"test_part":"fixation","trial_type":"html-keyboard-response","trial_index":422,"time_elapsed":1093250,"internal_node_id":"0.0-5.0-0.29"},{"rt":2141,"correct":true,"stimulus":"stimulus/A1.jpg","key_press":65,"total":"exp","test_part":"test_prototype","correct_response":"A","trial_type":"categorize-image","trial_index":423,"time_elapsed":1095393,"internal_node_id":"0.0-5.0-1.29"},{"rt":null,"stimulus":"<div style=\"font-size:60px;\">+</div>","key_press":null,"test_part":"fixation","trial_type":"html-keyboard-response","trial_index":424,"time_elapsed":1095994,"internal_node_id":"0.0-5.0-0.30"},{"rt":984,"correct":true,"stimulus":"stimulus/A7.jpg","key_press":65,"total":"exp","test_part":"test_unseen","correct_response":"A","trial_type":"categorize-image","trial_index":425,"time_elapsed":1096981,"internal_node_id":"0.0-5.0-1.30"},{"rt":null,"stimulus":"<div style=\"font-size:60px;\">+</div>","key_press":null,"test_part":"fixation","trial_type":"html-keyboard-response","trial_index":426,"time_elapsed":1097782,"internal_node_id":"0.0-5.0-0.31"},{"rt":2307,"correct":true,"stimulus":"stimulus/A4.jpg","key_press":65,"total":"exp","test_part":"test_seen","correct_response":"A","trial_type":"categorize-image","trial_index":427,"time_elapsed":1100089,"internal_node_id":"0.0-5.0-1.31"},{"rt":null,"stimulus":"<div style=\"font-size:60px;\">+</div>","key_press":null,"test_part":"fixation","trial_type":"html-keyboard-response","trial_index":428,"time_elapsed":1100691,"internal_node_id":"0.0-5.0-0.32"},{"rt":3081,"correct":false,"stimulus":"stimulus/B14.jpg","key_press":65,"total":"exp","test_part":"test_unseen","correct_response":"B","trial_type":"categorize-image","trial_index":429,"time_elapsed":1103774,"internal_node_id":"0.0-5.0-1.32"},{"rt":null,"stimulus":"<div style=\"font-size:60px;\">+</div>","key_press":null,"test_part":"fixation","trial_type":"html-keyboard-response","trial_index":430,"time_elapsed":1104375,"internal_node_id":"0.0-5.0-0.33"},{"rt":1409,"correct":true,"stimulus":"stimulus/B12.jpg","key_press":66,"total":"exp","test_part":"test_seen","correct_response":"B","trial_type":"categorize-image","trial_index":431,"time_elapsed":1105785,"internal_node_id":"0.0-5.0-1.33"},{"rt":null,"stimulus":"<div style=\"font-size:60px;\">+</div>","key_press":null,"test_part":"fixation","trial_type":"html-keyboard-response","trial_index":432,"time_elapsed":1106387,"internal_node_id":"0.0-5.0-0.34"},{"rt":7020,"correct":true,"stimulus":"stimulus/B8.jpg","key_press":66,"total":"exp","test_part":"test_prototype","correct_response":"B","trial_type":"categorize-image","trial_index":433,"time_elapsed":1113410,"internal_node_id":"0.0-5.0-1.34"},{"rt":null,"stimulus":"<div style=\"font-size:60px;\">+</div>","key_press":null,"test_part":"fixation","trial_type":"html-keyboard-response","trial_index":434,"time_elapsed":1114011,"internal_node_id":"0.0-5.0-0.35"},{"rt":738,"correct":true,"stimulus":"stimulus/A1.jpg","key_press":65,"total":"exp","test_part":"test_prototype","correct_response":"A","trial_type":"categorize-image","trial_index":435,"time_elapsed":1114750,"internal_node_id":"0.0-5.0-1.35"},{"rt":null,"stimulus":"<div style=\"font-size:60px;\">+</div>","key_press":null,"test_part":"fixation","trial_type":"html-keyboard-response","trial_index":436,"time_elapsed":1115350,"internal_node_id":"0.0-5.0-0.36"},{"rt":852,"correct":false,"stimulus":"stimulus/B14.jpg","key_press":65,"total":"exp","test_part":"test_unseen","correct_response":"B","trial_type":"categorize-image","trial_index":437,"time_elapsed":1116205,"internal_node_id":"0.0-5.0-1.36"},{"rt":null,"stimulus":"<div style=\"font-size:60px;\">+</div>","key_press":null,"test_part":"fixation","trial_type":"html-keyboard-response","trial_index":438,"time_elapsed":1117007,"internal_node_id":"0.0-5.0-0.37"},{"rt":2188,"correct":true,"stimulus":"stimulus/B8.jpg","key_press":66,"total":"exp","test_part":"test_prototype","correct_response":"B","trial_type":"categorize-image","trial_index":439,"time_elapsed":1119196,"internal_node_id":"0.0-5.0-1.37"},{"