[{"rt":29764.895000029355,"stimulus":"Welcome Samrudh. Press any key to continue.","key_press":32,"trial_type":"html-keyboard-response","trial_index":0,"time_elapsed":29805,"internal_node_id":"0.0-0.0"},{"rt":21736.865000333637,"stimulus":"<p>In this experiment, you will see a series of line drawings of bugs which can be classified either as Category A bugs or as Category B bugs.<br> Your job is to look carefully at each bug and decide if it belongs to Category A or Category B.</p> <p>Press “a” on the keyboard if you think it is a Category A bug and “b” if you think it is a Category B bug.<br> At first, the task will seem quite difficult, but with time and practice, you should be able to answer correctly</p><p>Press any key to continue</p>","key_press":32,"trial_type":"html-keyboard-response","trial_index":1,"time_elapsed":51548,"internal_node_id":"0.0-1.0"},{"rt":3844.874999951571,"stimulus":"<p>This is the training phase of the experiment. Feedback will be provided after each trial in this session. The total number of trials in this phase are 180.<br>Press any key to begin.</p>","key_press":32,"trial_type":"html-keyboard-response","trial_index":2,"time_elapsed":55397,"internal_node_id":"0.0-2.0"},{"rt":null,"stimulus":"<div style=\"font-size:60px;\">+</div>","key_press":null,"test_part":"fixation","trial_type":"html-keyboard-response","trial_index":3,"time_elapsed":56206,"internal_node_id":"0.0-3.0-0.0"},{"rt":9263.850000221282,"correct":true,"stimulus":"stimulus/A7.jpg","key_press":65,"total":"exp","test_part":"train","correct_response":"A","trial_type":"categorize-image","trial_index":4,"time_elapsed":67483,"internal_node_id":"0.0-3.0-1.0"},{"rt":null,"stimulus":"<div style=\"font-size:60px;\">+</div>","key_press":null,"test_part":"fixation","trial_type":"html-keyboard-response","trial_index":5,"time_elapsed":68288,"internal_node_id":"0.0-3.0-0.1"},{"rt":972.6850003935397,"correct":true,"stimulus":"stimulus/B13.jpg","key_press":66,"total":"exp","test_part":"train","correct_response":"B","trial_type":"categorize-image","trial_index":6,"time_elapsed":71270,"internal_node_id":"0.0-3.0-1.1"},{"rt":null,"stimulus":"<div style=\"font-size:60px;\">+</div>","key_press":null,"test_part":"fixation","trial_type":"html-keyboard-response","trial_index":7,"time_elapsed":71873,"internal_node_id":"0.0-3.0-0.2"},{"rt":763.2249998860061,"correct":false,"stimulus":"stimulus/A6.jpg","key_press":66,"total":"exp","test_part":"train","correct_response":"A","trial_type":"categorize-image","trial_index":8,"time_elapsed":74650,"internal_node_id":"0.0-3.0-1.2"},{"rt":null,"stimulus":"<div style=\"font-size:60px;\">+</div>","key_press":null,"test_part":"fixation","trial_type":"html-keyboard-response","trial_index":9,"time_elapsed":75453,"internal_node_id":"0.0-3.0-0.3"},{"rt":1290.9849998541176,"correct":false,"stimulus":"stimulus/A5.jpg","key_press":66,"total":"exp","test_part":"train","correct_response":"A","trial_type":"categorize-image","trial_index":10,"time_elapsed":78752,"internal_node_id":"0.0-3.0-1.3"},{"rt":null,"stimulus":"<div style=\"font-size:60px;\">+</div>","key_press":null,"test_part":"fixation","trial_type":"html-keyboard-response","trial_index":11,"time_elapsed":79555,"internal_node_id":"0.0-3.0-0.4"},{"rt":936.3950002007186,"correct":false,"stimulus":"stimulus/B10.jpg","key_press":65,"total":"exp","test_part":"train","correct_response":"B","trial_type":"categorize-image","trial_index":12,"time_elapsed":82503,"internal_node_id":"0.0-3.0-1.4"},{"rt":null,"stimulus":"<div style=\"font-size:60px;\">+</div>","key_press":null,"test_part":"fixation","trial_type":"html-keyboard-response","trial_index":13,"time_elapsed":83109,"internal_node_id":"0.0-3.0-0.5"},{"rt":896.9650003127754,"correct":true,"stimulus":"stimulus/B14.jpg","key_press":66,"total":"exp","test_part":"train","correct_response":"B","trial_type":"categorize-image","trial_index":14,"time_elapsed":86017,"internal_node_id":"0.0-3.0-1.5"},{"rt":null,"stimulus":"<div style=\"font-size:60px;\">+</div>","key_press":null,"test_part":"fixation","trial_type":"html-keyboard-response","trial_index":15,"time_elapsed":86820,"internal_node_id":"0.0-3.0-0.6"},{"rt":942.3349997960031,"correct":false,"stimulus":"stimulus/B12.jpg","key_press":65,"total":"exp","test_part":"train","correct_response":"B","trial_type":"categorize-image","trial_index":16,"time_elapsed":89774,"internal_node_id":"0.0-3.0-1.6"},{"rt":null,"stimulus":"<div style=\"font-size:60px;\">+</div>","key_press":null,"test_part":"fixation","trial_type":"html-keyboard-response","trial_index":17,"time_elapsed":90576,"internal_node_id":"0.0-3.0-0.7"},{"rt":1508.3049996756017,"correct":true,"stimulus":"stimulus/A4.jpg","key_press":65,"total":"exp","test_part":"train","correct_response":"A","trial_type":"categorize-image","trial_index":18,"time_elapsed":94091,"internal_node_id":"0.0-3.0-1.7"},{"rt":null,"stimulus":"<div style=\"font-size:60px;\">+</div>","key_press":null,"test_part":"fixation","trial_type":"html-keyboard-response","trial_index":19,"time_elapsed":94693,"internal_node_id":"0.0-3.0-0.8"},{"rt":954.7349996864796,"correct":true,"stimulus":"stimulus/A3.jpg","key_press":65,"total":"exp","test_part":"train","correct_response":"A","trial_type":"categorize-image","trial_index":20,"time_elapsed":97655,"internal_node_id":"0.0-3.0-1.8"},{"rt":null,"stimulus":"<div style=\"font-size:60px;\">+</div>","key_press":null,"test_part":"fixation","trial_type":"html-keyboard-response","trial_index":21,"time_elapsed":98457,"internal_node_id":"0.0-3.0-0.9"},{"rt":744.005000218749,"correct":true,"stimulus":"stimulus/B11.jpg","key_press":66,"total":"exp","test_part":"train","correct_response":"B","trial_type":"categorize-image","trial_index":22,"time_elapsed":101210,"internal_node_id":"0.0-3.0-1.9"},{"rt":null,"stimulus":"<div style=\"font-size:60px;\">+</div>","key_press":null,"test_part":"fixation","trial_type":"html-keyboard-response","trial_index":23,"time_elapsed":101814,"internal_node_id":"0.0-3.0-0.10"},{"rt":643.4099995531142,"correct":false,"stimulus":"stimulus/B10.jpg","key_press":65,"total":"exp","test_part":"train","correct_response":"B","trial_type":"categorize-image","trial_index":24,"time_elapsed":104465,"internal_node_id":"0.0-3.0-1.10"},{"rt":null,"stimulus":"<div style=\"font-size:60px;\">+</div>","key_press":null,"test_part":"fixation","trial_type":"html-keyboard-response","trial_index":25,"time_elapsed":105069,"internal_node_id":"0.0-3.0-0.11"},{"rt":1039.80499971658,"correct":true,"stimulus":"stimulus/A3.jpg","key_press":65,"total":"exp","test_part":"train","correct_response":"A","trial_type":"categorize-image","trial_index":26,"time_elapsed":108119,"internal_node_id":"0.0-3.0-1.11"},{"rt":null,"stimulus":"<div style=\"font-size:60px;\">+</div>","key_press":null,"test_part":"fixation","trial_type":"html-keyboard-response","trial_index":27,"time_elapsed":108923,"internal_node_id":"0.0-3.0-0.12"},{"rt":1571.8350000679493,"correct":true,"stimulus":"stimulus/B11.jpg","key_press":66,"total":"exp","test_part":"train","correct_response":"B","trial_type":"categorize-image","trial_index":28,"time_elapsed":112505,"internal_node_id":"0.0-3.0-1.12"},{"rt":null,"stimulus":"<div style=\"font-size:60px;\">+</div>","key_press":null,"test_part":"fixation","trial_type":"html-keyboard-response","trial_index":29,"time_elapsed":113309,"internal_node_id":"0.0-3.0-0.13"},{"rt":1277.4000000208616,"correct":false,"stimulus":"stimulus/A6.jpg","key_press":66,"total":"exp","test_part":"train","correct_response":"A","trial_type":"categorize-image","trial_index":30,"time_elapsed":116597,"internal_node_id":"0.0-3.0-1.13"},{"rt":null,"stimulus":"<div style=\"font-size:60px;\">+</div>","key_press":null,"test_part":"fixation","trial_type":"html-keyboard-response","trial_index":31,"time_elapsed":117401,"internal_node_id":"0.0-3.0-0.14"},{"rt":2522.6449999026954,"correct":true,"stimulus":"stimulus/A7.jpg","key_press":65,"total":"exp","test_part":"train","correct_response":"A","trial_type":"categorize-image","trial_index":32,"time_elapsed":121934,"internal_node_id":"0.0-3.0-1.14"},{"rt":null,"stimulus":"<div style=\"font-size:60px;\">+</div>","key_press":null,"test_part":"fixation","trial_type":"html-keyboard-response","trial_index":33,"time_elapsed":122537,"internal_node_id":"0.0-3.0-0.15"},{"rt":9375.324999913573,"correct":true,"stimulus":"stimulus/B14.jpg","key_press":66,"total":"exp","test_part":"train","correct_response":"B","trial_type":"categorize-image","trial_index":34,"time_elapsed":133921,"internal_node_id":"0.0-3.0-1.15"},{"rt":null,"stimulus":"<div style=\"font-size:60px;\">+</div>","key_press":null,"test_part":"fixation","trial_type":"html-keyboard-response","trial_index":35,"time_elapsed":134524,"internal_node_id":"0.0-3.0-0.16"},{"rt":1731.2549999915063,"correct":true,"stimulus":"stimulus/B12.jpg","key_press":66,"total":"exp","test_part":"train","correct_response":"B","trial_type":"categorize-image","trial_index":36,"time_elapsed":138268,"internal_node_id":"0.0-3.0-1.16"},{"rt":null,"stimulus":"<div style=\"font-size:60px;\">+</div>","key_press":null,"test_part":"fixation","trial_type":"html-keyboard-response","trial_index":37,"time_elapsed":139072,"internal_node_id":"0.0-3.0-0.17"},{"rt":4154.305000323802,"correct":false,"stimulus":"stimulus/A5.jpg","key_press":66,"total":"exp","test_part":"train","correct_response":"A","trial_type":"categorize-image","trial_index":38,"time_elapsed":145237,"internal_node_id":"0.0-3.0-1.17"},{"rt":null,"stimulus":"<div style=\"font-size:60px;\">+</div>","key_press":null,"test_part":"fixation","trial_type":"html-keyboard-response","trial_index":39,"time_elapsed":145848,"internal_node_id":"0.0-3.0-0.18"},{"rt":876.8850001506507,"correct":true,"stimulus":"stimulus/B13.jpg","key_press":66,"total":"exp","test_part":"train","correct_response":"B","trial_type":"categorize-image","trial_index":40,"time_elapsed":148734,"internal_node_id":"0.0-3.0-1.18"},{"rt":null,"stimulus":"<div style=\"font-size:60px;\">+</div>","key_press":null,"test_part":"fixation","trial_type":"html-keyboard-response","trial_index":41,"time_elapsed":149538,"internal_node_id":"0.0-3.0-0.19"},{"rt":1106.4300001598895,"correct":true,"stimulus":"stimulus/A4.jpg","key_press":65,"total":"exp","test_part":"train","correct_response":"A","trial_type":"categorize-image","trial_index":42,"time_elapsed":152654,"internal_node_id":"0.0-3.0-1.19"},{"rt":null,"stimulus":"<div style=\"font-size:60px;\">+</div>","key_press":null,"test_part":"fixation","trial_type":"html-keyboard-response","trial_index":43,"time_elapsed":153257,"internal_node_id":"0.0-3.0-0.20"},{"rt":1604.4049998745322,"correct":false,"stimulus":"stimulus/B14.jpg","key_press":65,"total":"exp","test_part":"train","correct_response":"B","trial_type":"categorize-image","trial_index":44,"time_elapsed":156865,"internal_node_id":"0.0-3.0-1.20"},{"rt":null,"stimulus":"<div style=\"font-size:60px;\">+</div>","key_press":null,"test_part":"fixation","trial_type":"html-keyboard-response","trial_index":45,"time_elapsed":157468,"internal_node_id":"0.0-3.0-0.21"},{"rt":800.8350003510714,"correct":false,"stimulus":"stimulus/A6.jpg","key_press":66,"total":"exp","test_part":"train","correct_response":"A","trial_type":"categorize-image","trial_index":46,"time_elapsed":160278,"internal_node_id":"0.0-3.0-1.21"},{"rt":null,"stimulus":"<div style=\"font-size:60px;\">+</div>","key_press":null,"test_part":"fixation","trial_type":"html-keyboard-response","trial_index":47,"time_elapsed":160882,"internal_node_id":"0.0-3.0-0.22"},{"rt":1683.9699996635318,"correct":true,"stimulus":"stimulus/B12.jpg","key_press":66,"total":"exp","test_part":"train","correct_response":"B","trial_type":"categorize-image","trial_index":48,"time_elapsed":164575,"internal_node_id":"0.0-3.0-1.22"},{"rt":null,"stimulus":"<div style=\"font-size:60px;\">+</div>","key_press":null,"test_part":"fixation","trial_type":"html-keyboard-response","trial_index":49,"time_elapsed":165378,"internal_node_id":"0.0-3.0-0.23"},{"rt":1578.5049996338785,"correct":false,"stimulus":"stimulus/B11.jpg","key_press":65,"total":"exp","test_part":"train","correct_response":"B","trial_type":"categorize-image","trial_index":50,"time_elapsed":168967,"internal_node_id":"0.0-3.0-1.23"},{"rt":null,"stimulus":"<div style=\"font-size:60px;\">+</div>","key_press":null,"test_part":"fixation","trial_type":"html-keyboard-response","trial_index":51,"time_elapsed":169772,"internal_node_id":"0.0-3.0-0.24"},{"rt":2040.280000306666,"correct":false,"stimulus":"stimulus/A7.jpg","key_press":66,"total":"exp","test_part":"train","correct_response":"A","trial_type":"categorize-image","trial_index":52,"time_elapsed":173823,"internal_node_id":"0.0-3.0-1.24"},{"rt":null,"stimulus":"<div style=\"font-size:60px;\">+</div>","key_press":null,"test_part":"fixation","trial_type":"html-keyboard-response","trial_index":53,"time_elapsed":174626,"internal_node_id":"0.0-3.0-0.25"},{"rt":1103.544999845326,"correct":true,"stimulus":"stimulus/A4.jpg","key_press":65,"total":"exp","test_part":"train","correct_response":"A","trial_type":"categorize-image","trial_index":54,"time_elapsed":177740,"internal_node_id":"0.0-3.0-1.25"},{"rt":null,"stimulus":"<div style=\"font-size:60px;\">+</div>","key_press":null,"test_part":"fixation","trial_type":"html-keyboard-response","trial_index":55,"time_elapsed":178543,"internal_node_id":"0.0-3.0-0.26"},{"rt":1934.3499997630715,"correct":true,"stimulus":"stimulus/A5.jpg","key_press":65,"total":"exp","test_part":"train","correct_response":"A","trial_type":"categorize-image","trial_index":56,"time_elapsed":182486,"internal_node_id":"0.0-3.0-1.26"},{"rt":null,"stimulus":"<div style=\"font-size:60px;\">+</div>","key_press":null,"test_part":"fixation","trial_type":"html-keyboard-response","trial_index":57,"time_elapsed":183289,"internal_node_id":"0.0-3.0-0.27"},{"rt":1712.745000142604,"correct":true,"stimulus":"stimulus/A3.jpg","key_press":65,"total":"exp","test_part":"train","correct_response":"A","trial_type":"categorize-image","trial_index":58,"time_elapsed":187012,"internal_node_id":"0.0-3.0-1.27"},{"rt":null,"stimulus":"<div style=\"font-size:60px;\">+</div>","key_press":null,"test_part":"fixation","trial_type":"html-keyboard-response","trial_index":59,"time_elapsed":187816,"internal_node_id":"0.0-3.0-0.28"},{"rt":1442.0199999585748,"correct":true,"stimulus":"stimulus/B10.jpg","key_press":66,"total":"exp","test_part":"train","correct_response":"B","trial_type":"categorize-image","trial_index":60,"time_elapsed":191269,"internal_node_id":"0.0-3.0-1.28"},{"rt":null,"stimulus":"<div style=\"font-size:60px;\">+</div>","key_press":null,"test_part":"fixation","trial_type":"html-keyboard-response","trial_index":61,"time_elapsed":192072,"internal_node_id":"0.0-3.0-0.29"},{"rt":1122.6849998347461,"correct":true,"stimulus":"stimulus/B13.jpg","key_press":66,"total":"exp","test_part":"train","correct_response":"B","trial_type":"categorize-image","trial_index":62,"time_elapsed":195203,"internal_node_id":"0.0-3.0-1.29"},{"rt":null,"stimulus":"<div style=\"font-size:60px;\">+</div>","key_press":null,"test_part":"fixation","trial_type":"html-keyboard-response","trial_index":63,"time_elapsed":195806,"internal_node_id":"0.0-3.0-0.30"},{"rt":2114.425000268966,"correct":true,"stimulus":"stimulus/B12.jpg","key_press":66,"total":"exp","test_part":"train","correct_response":"B","trial_type":"categorize-image","trial_index":64,"time_elapsed":199932,"internal_node_id":"0.0-3.0-1.30"},{"rt":null,"stimulus":"<div style=\"font-size:60px;\">+</div>","key_press":null,"test_part":"fixation","trial_type":"html-keyboard-response","trial_index":65,"time_elapsed":200536,"internal_node_id":"0.0-3.0-0.31"},{"rt":1107.0350003428757,"correct":false,"stimulus":"stimulus/A6.jpg","key_press":66,"total":"exp","test_part":"train","correct_response":"A","trial_type":"categorize-image","trial_index":66,"time_elapsed":203652,"internal_node_id":"0.0-3.0-1.31"},{"rt":null,"stimulus":"<div style=\"font-size:60px;\">+</div>","key_press":null,"test_part":"fixation","trial_type":"html-keyboard-response","trial_index":67,"time_elapsed":204256,"internal_node_id":"0.0-3.0-0.32"},{"rt":1297.2350004129112,"correct":false,"stimulus":"stimulus/B10.jpg","key_press":65,"total":"exp","test_part":"train","correct_response":"B","trial_type":"categorize-image","trial_index":68,"time_elapsed":207565,"internal_node_id":"0.0-3.0-1.32"},{"rt":null,"stimulus":"<div style=\"font-size:60px;\">+</div>","key_press":null,"test_part":"fixation","trial_type":"html-keyboard-response","trial_index":69,"time_elapsed":208174,"internal_node_id":"0.0-3.0-0.33"},{"rt":782.1100000292063,"correct":true,"stimulus":"stimulus/A4.jpg","key_press":65,"total":"exp","test_part":"train","correct_response":"A","trial_type":"categorize-image","trial_index":70,"time_elapsed":210966,"internal_node_id":"0.0-3.0-1.33"},{"rt":null,"stimulus":"<div style=\"font-size:60px;\">+</div>","key_press":null,"test_part":"fixation","trial_type":"html-keyboard-response","trial_index":71,"time_elapsed":211770,"internal_node_id":"0.0-3.0-0.34"},{"rt":2389.1599997878075,"correct":true,"stimulus":"stimulus/A5.jpg","key_press":65,"total":"exp","test_part":"train","correct_response":"A","trial_type":"categorize-image","trial_index":72,"time_elapsed":216169,"internal_node_id":"0.0-3.0-1.34"},{"rt":null,"stimulus":"<div style=\"font-size:60px;\">+</div>","key_press":null,"test_part":"fixation","trial_type":"html-keyboard-response","trial_index":73,"time_elapsed":216773,"internal_node_id":"0.0-3.0-0.35"},{"rt":1064.2550000920892,"correct":true,"stimulus":"stimulus/A7.jpg","key_press":65,"total":"exp","test_part":"train","correct_response":"A","trial_type":"categorize-image","trial_index":74,"time_elapsed":219847,"internal_node_id":"0.0-3.0-1.35"},{"rt":null,"stimulus":"<div style=\"font-size:60px;\">+</div>","key_press":null,"test_part":"fixation","trial_type":"html-keyboard-response","trial_index":75,"time_elapsed":220450,"internal_node_id":"0.0-3.0-0.36"},{"rt":1584.230000153184,"correct":true,"stimulus":"stimulus/B13.jpg","key_press":66,"total":"exp","test_part":"train","correct_response":"B","trial_type":"categorize-image","trial_index":76,"time_elapsed":224044,"internal_node_id":"0.0-3.0-1.36"},{"rt":null,"stimulus":"<div style=\"font-size:60px;\">+</div>","key_press":null,"test_part":"fixation","trial_type":"html-keyboard-response","trial_index":77,"time_elapsed":224647,"internal_node_id":"0.0-3.0-0.37"},{"rt":1013.4200002066791,"correct":true,"stimulus":"stimulus/A3.jpg","key_press":65,"total":"exp","test_part":"train","correct_response":"A","trial_type":"categorize-image","trial_index":78,"time_elapsed":227670,"internal_node_id":"0.0-3.0-1.37"},{"rt":null,"stimulus":"<div style=\"font-size:60px;\">+</div>","key_press":null,"test_part":"fixation","trial_type":"html-keyboard-response","trial_index":79,"time_elapsed":228475,"internal_node_id":"0.0-3.0-0.38"},{"rt":1897.0200000330806,"correct":true,"stimulus":"stimulus/B11.jpg","key_press":66,"total":"exp","test_part":"train","correct_response":"B","trial_type":"categorize-image","trial_index":80,"time_elapsed":232380,"internal_node_id":"0.0-3.0-1.38"},{"rt":null,"stimulus":"<div style=\"font-size:60px;\">+</div>","key_press":null,"test_part":"fixation","trial_type":"html-keyboard-response","trial_index":81,"time_elapsed":233183,"internal_node_id":"0.0-3.0-0.39"},{"rt":1722.4100003950298,"correct":false,"stimulus":"stimulus/B14.jpg","key_press":65,"total":"exp","test_part":"train","correct_response":"B","trial_type":"categorize-image","trial_index":82,"time_elapsed":236915,"internal_node_id":"0.0-3.0-1.39"},{"rt":null,"stimulus":"<div style=\"font-size:60px;\">+</div>","key_press":null,"test_part":"fixation","trial_type":"html-keyboard-response","trial_index":83,"time_elapsed":237518,"internal_node_id":"0.0-3.0-0.40"},{"rt":941.7900000698864,"correct":false,"stimulus":"stimulus/B10.jpg","key_press":65,"total":"exp","test_part":"train","correct_response":"B","trial_type":"categorize-image","trial_index":84,"time_elapsed":240472,"internal_node_id":"0.0-3.0-1.40"},{"rt":null,"stimulus":"<div style=\"font-size:60px;\">+</div>","key_press":null,"test_part":"fixation","trial_type":"html-keyboard-response","trial_index":85,"time_elapsed":241075,"internal_node_id":"0.0-3.0-0.41"},{"rt":1327.2049999795854,"correct":true,"stimulus":"stimulus/A3.jpg","key_press":65,"total":"exp","test_part":"train","correct_response":"A","trial_type":"categorize-image","trial_index":86,"time_elapsed":244411,"internal_node_id":"0.0-3.0-1.41"},{"rt":null,"stimulus":"<div style=\"font-size:60px;\">+</div>","key_press":null,"test_part":"fixation","trial_type":"html-keyboard-response","trial_index":87,"time_elapsed":245013,"internal_node_id":"0.0-3.0-0.42"},{"rt":1048.0399997904897,"correct":true,"stimulus":"stimulus/A5.jpg","key_press":65,"total":"exp","test_part":"train","correct_response":"A","trial_type":"categorize-image","trial_index":88,"time_elapsed":248066,"internal_node_id":"0.0-3.0-1.42"},{"rt":null,"stimulus":"<div style=\"font-size:60px;\">+</div>","key_press":null,"test_part":"fixation","trial_type":"html-keyboard-response","trial_index":89,"time_elapsed":248868,"internal_node_id":"0.0-3.0-0.43"},{"rt":2636.7499995976686,"correct":false,"stimulus":"stimulus/A6.jpg","key_press":66,"total":"exp","test_part":"train","correct_response":"A","trial_type":"categorize-image","trial_index":90,"time_elapsed":253513,"internal_node_id":"0.0-3.0-1.43"},{"rt":null,"stimulus":"<div style=\"font-size:60px;\">+</div>","key_press":null,"test_part":"fixation","trial_type":"html-keyboard-response","trial_index":91,"time_elapsed":254117,"internal_node_id":"0.0-3.0-0.44"},{"rt":1309.8000003956258,"correct":true,"stimulus":"stimulus/B13.jpg","key_press":66,"total":"exp","test_part":"train","correct_response":"B","trial_type":"categorize-image","trial_index":92,"time_elapsed":257438,"internal_node_id":"0.0-3.0-1.44"},{"rt":null,"stimulus":"<div style=\"font-size:60px;\">+</div>","key_press":null,"test_part":"fixation","trial_type":"html-keyboard-response","trial_index":93,"time_elapsed":258040,"internal_node_id":"0.0-3.0-0.45"},{"rt":884.1699999757111,"correct":true,"stimulus":"stimulus/A4.jpg","key_press":65,"total":"exp","test_part":"train","correct_response":"A","trial_type":"categorize-image","trial_index":94,"time_elapsed":260935,"internal_node_id":"0.0-3.0-1.45"},{"rt":null,"stimulus":"<div style=\"font-size:60px;\">+</div>","key_press":null,"test_part":"fixation","trial_type":"html-keyboard-response","trial_index":95,"time_elapsed":261537,"internal_node_id":"0.0-3.0-0.46"},{"rt":1780.7450001128018,"correct":true,"stimulus":"stimulus/B11.jpg","key_press":66,"total":"exp","test_part":"train","correct_response":"B","trial_type":"categorize-image","trial_index":96,"time_elapsed":265323,"internal_node_id":"0.0-3.0-1.46"},{"rt":null,"stimulus":"<div style=\"font-size:60px;\">+</div>","key_press":null,"test_part":"fixation","trial_type":"html-keyboard-response","trial_index":97,"time_elapsed":266125,"internal_node_id":"0.0-3.0-0.47"},{"rt":1896.2249998003244,"correct":false,"stimulus":"stimulus/A7.jpg","key_press":66,"total":"exp","test_part":"train","correct_response":"A","trial_type":"categorize-image","trial_index":98,"time_elapsed":270030,"internal_node_id":"0.0-3.0-1.47"},{"rt":null,"stimulus":"<div style=\"font-size:60px;\">+</div>","key_press":null,"test_part":"fixation","trial_type":"html-keyboard-response","trial_index":99,"time_elapsed":270632,"internal_node_id":"0.0-3.0-0.48"},{"rt":1873.0799998156726,"correct":false,"stimulus":"stimulus/B14.jpg","key_press":65,"total":"exp","test_part":"train","correct_response":"B","trial_type":"categorize-image","trial_index":100,"time_elapsed":274516,"internal_node_id":"0.0-3.0-1.48"},{"rt":null,"stimulus":"<div style=\"font-size:60px;\">+</div>","key_press":null,"test_part":"fixation","trial_type":"html-keyboard-response","trial_index":101,"time_elapsed":275319,"internal_node_id":"0.0-3.0-0.49"},{"rt":2512.6849999651313,"correct":false,"stimulus":"stimulus/B12.jpg","key_press":65,"total":"exp","test_part":"train","correct_response":"B","trial_type":"categorize-image","trial_index":102,"time_elapsed":279841,"internal_node_id":"0.0-3.0-1.49"},{"rt":null,"stimulus":"<div style=\"font-size:60px;\">+</div>","key_press":null,"test_part":"fixation","trial_type":"html-keyboard-response","trial_index":103,"time_elapsed":280644,"internal_node_id":"0.0-3.0-0.50"},{"rt":1261.6649996489286,"correct":true,"stimulus":"stimulus/A4.jpg","key_press":65,"total":"exp","test_part":"train","correct_response":"A","trial_type":"categorize-image","trial_index":104,"time_elapsed":283916,"internal_node_id":"0.0-3.0-1.50"},{"rt":null,"stimulus":"<div style=\"font-size:60px;\">+</div>","key_press":null,"test_part":"fixation","trial_type":"html-keyboard-response","trial_index":105,"time_elapsed":284719,"internal_node_id":"0.0-3.0-0.51"},{"rt":2814.3100002780557,"correct":true,"stimulus":"stimulus/B11.jpg","key_press":66,"total":"exp","test_part":"train","correct_response":"B","trial_type":"categorize-image","trial_index":106,"time_elapsed":289545,"internal_node_id":"0.0-3.0-1.51"},{"rt":null,"stimulus":"<div style=\"font-size:60px;\">+</div>","key_press":null,"test_part":"fixation","trial_type":"html-keyboard-response","trial_index":107,"time_elapsed":290348,"internal_node_id":"0.0-3.0-0.52"},{"rt":2200.8050000295043,"correct":true,"stimulus":"stimulus/A7.jpg","key_press":65,"total":"exp","test_part":"train","correct_response":"A","trial_type":"categorize-image","trial_index":108,"time_elapsed":294561,"internal_node_id":"0.0-3.0-1.52"},{"rt":null,"stimulus":"<div style=\"font-size:60px;\">+</div>","key_press":null,"test_part":"fixation","trial_type":"html-keyboard-response","trial_index":109,"time_elapsed":295364,"internal_node_id":"0.0-3.0-0.53"},{"rt":2962.739999871701,"correct":true,"stimulus":"stimulus/A3.jpg","key_press":65,"total":"exp","test_part":"train","correct_response":"A","trial_type":"categorize-image","trial_index":110,"time_elapsed":300336,"internal_node_id":"0.0-3.0-1.53"},{"rt":null,"stimulus":"<div style=\"font-size:60px;\">+</div>","key_press":null,"test_part":"fixation","trial_type":"html-keyboard-response","trial_index":111,"time_elapsed":300940,"internal_node_id":"0.0-3.0-0.54"},{"rt":1379.4700000435114,"correct":true,"stimulus":"stimulus/A5.jpg","key_press":65,"total":"exp","test_part":"train","correct_response":"A","trial_type":"categorize-image","trial_index":112,"time_elapsed":304329,"internal_node_id":"0.0-3.0-1.54"},{"rt":null,"stimulus":"<div style=\"font-size:60px;\">+</div>","key_press":null,"test_part":"fixation","trial_type":"html-keyboard-response","trial_index":113,"time_elapsed":305131,"internal_node_id":"0.0-3.0-0.55"},{"rt":638.3099998347461,"correct":false,"stimulus":"stimulus/B13.jpg","key_press":65,"total":"exp","test_part":"train","correct_response":"B","trial_type":"categorize-image","trial_index":114,"time_elapsed":307780,"internal_node_id":"0.0-3.0-1.55"},{"rt":null,"stimulus":"<div style=\"font-size:60px;\">+</div>","key_press":null,"test_part":"fixation","trial_type":"html-keyboard-response","trial_index":115,"time_elapsed":308583,"internal_node_id":"0.0-3.0-0.56"},{"rt":1502.7749999426305,"correct":true,"stimulus":"stimulus/B10.jpg","key_press":66,"total":"exp","test_part":"train","correct_response":"B","trial_type":"categorize-image","trial_index":116,"time_elapsed":312095,"internal_node_id":"0.0-3.0-1.56"},{"rt":null,"stimulus":"<div style=\"font-size:60px;\">+</div>","key_press":null,"test_part":"fixation","trial_type":"html-keyboard-response","trial_index":117,"time_elapsed":312900,"internal_node_id":"0.0-3.0-0.57"},{"rt":3827.6750002987683,"correct":true,"stimulus":"stimulus/A6.jpg","key_press":65,"total":"exp","test_part":"train","correct_response":"A","trial_type":"categorize-image","trial_index":118,"time_elapsed":318740,"internal_node_id":"0.0-3.0-1.57"},{"rt":null,"stimulus":"<div style=\"font-size:60px;\">+</div>","key_press":null,"test_part":"fixation","trial_type":"html-keyboard-response","trial_index":119,"time_elapsed":319543,"internal_node_id":"0.0-3.0-0.58"},{"rt":1097.470000386238,"correct":true,"stimulus":"stimulus/B12.jpg","key_press":66,"total":"exp","test_part":"train","correct_response":"B","trial_type":"categorize-image","trial_index":120,"time_elapsed":322653,"internal_node_id":"0.0-3.0-1.58"},{"rt":null,"stimulus":"<div style=\"font-size:60px;\">+</div>","key_press":null,"test_part":"fixation","trial_type":"html-keyboard-response","trial_index":121,"time_elapsed":323255,"internal_node_id":"0.0-3.0-0.59"},{"rt":1911.8300001136959,"correct":false,"stimulus":"stimulus/B14.jpg","key_press":65,"total":"exp","test_part":"train","correct_response":"B","trial_type":"categorize-image","trial_index":122,"time_elapsed":327177,"internal_node_id":"0.0-3.0-1.59"},{"rt":null,"stimulus":"<div style=\"font-size:60px;\">+</div>","key_press":null,"test_part":"fixation","trial_type":"html-keyboard-response","trial_index":123,"time_elapsed":327980,"internal_node_id":"0.0-3.0-0.60"},{"rt":1194.4899996742606,"correct":true,"stimulus":"stimulus/B14.jpg","key_press":66,"total":"exp","test_part":"train","correct_response":"B","trial_type":"categorize-image","trial_index":124,"time_elapsed":331185,"internal_node_id":"0.0-3.0-1.60"},{"rt":null,"stimulus":"<div style=\"font-size:60px;\">+</div>","key_press":null,"test_part":"fixation","trial_type":"html-keyboard-response","trial_index":125,"time_elapsed":331788,"internal_node_id":"0.0-3.0-0.61"},{"rt":977.564999833703,"correct":true,"stimulus":"stimulus/B11.jpg","key_press":66,"total":"exp","test_part":"train","correct_response":"B","trial_type":"categorize-image","trial_index":126,"time_elapsed":334775,"internal_node_id":"0.0-3.0-1.61"},{"rt":null,"stimulus":"<div style=\"font-size:60px;\">+</div>","key_press":null,"test_part":"fixation","trial_type":"html-keyboard-response","trial_index":127,"time_elapsed":335578,"internal_node_id":"0.0-3.0-0.62"},{"rt":818.7400000169873,"correct":true,"stimulus":"stimulus/B10.jpg","key_press":66,"total":"exp","test_part":"train","correct_response":"B","trial_type":"categorize-image","trial_index":128,"time_elapsed":338409,"internal_node_id":"0.0-3.0-1.62"},{"rt":null,"stimulus":"<div style=\"font-size:60px;\">+</div>","key_press":null,"test_part":"fixation","trial_type":"html-keyboard-response","trial_index":129,"time_elapsed":339011,"internal_node_id":"0.0-3.0-0.63"},{"rt":1035.2150001563132,"correct":false,"stimulus":"stimulus/A5.jpg","key_press":66,"total":"exp","test_part":"train","correct_response":"A","trial_type":"categorize-image","trial_index":130,"time_elapsed":342055,"internal_node_id":"0.0-3.0-1.63"},{"rt":null,"stimulus":"<div style=\"font-size:60px;\">+</div>","key_press":null,"test_part":"fixation","trial_type":"html-keyboard-response","trial_index":131,"time_elapsed":342859,"internal_node_id":"0.0-3.0-0.64"},{"rt":2925.595000386238,"correct":true,"stimulus":"stimulus/A7.jpg","key_press":65,"total":"exp","test_part":"train","correct_response":"A","trial_type":"categorize-image","trial_index":132,"time_elapsed":347798,"internal_node_id":"0.0-3.0-1.64"},{"rt":null,"stimulus":"<div style=\"font-size:60px;\">+</div>","key_press":null,"test_part":"fixation","trial_type":"html-keyboard-response","trial_index":133,"time_elapsed":348401,"internal_node_id":"0.0-3.0-0.65"},{"rt":3495.0850000604987,"correct":true,"stimulus":"stimulus/A3.jpg","key_press":65,"total":"exp","test_part":"train","correct_response":"A","trial_type":"categorize-image","trial_index":134,"time_elapsed":353905,"internal_node_id":"0.0-3.0-1.65"},{"rt":null,"stimulus":"<div style=\"font-size:60px;\">+</div>","key_press":null,"test_part":"fixation","trial_type":"html-keyboard-response","trial_index":135,"time_elapsed":354708,"internal_node_id":"0.0-3.0-0.66"},{"rt":939.7350000217557,"correct":true,"stimulus":"stimulus/A6.jpg","key_press":65,"total":"exp","test_part":"train","correct_response":"A","trial_type":"categorize-image","trial_index":136,"time_elapsed":357661,"internal_node_id":"0.0-3.0-1.66"},{"rt":null,"stimulus":"<div style=\"font-size:60px;\">+</div>","key_press":null,"test_part":"fixation","trial_type":"html-keyboard-response","trial_index":137,"time_elapsed":358263,"internal_node_id":"0.0-3.0-0.67"},{"rt":913.1200001575053,"correct":true,"stimulus":"stimulus/A4.jpg","key_press":65,"total":"exp","test_part":"train","correct_response":"A","trial_type":"categorize-image","trial_index":138,"time_elapsed":361187,"internal_node_id":"0.0-3.0-1.67"},{"rt":null,"stimulus":"<div style=\"font-size:60px;\">+</div>","key_press":null,"test_part":"fixation","trial_type":"html-keyboard-response","trial_index":139,"time_elapsed":361788,"internal_node_id":"0.0-3.0-0.68"},{"rt":998.5000002197921,"correct":true,"stimulus":"stimulus/B13.jpg","key_press":66,"total":"exp","test_part":"train","correct_response":"B","trial_type":"categorize-image","trial_index":140,"time_elapsed":364792,"internal_node_id":"0.0-3.0-1.68"},{"rt":null,"stimulus":"<div style=\"font-size:60px;\">+</div>","key_press":null,"test_part":"fixation","trial_type":"html-keyboard-response","trial_index":141,"time_elapsed":365394,"internal_node_id":"0.0-3.0-0.69"},{"rt":693.1649995967746,"correct":true,"stimulus":"stimulus/B12.jpg","key_press":66,"total":"exp","test_part":"train","correct_response":"B","trial_type":"categorize-image","trial_index":142,"time_elapsed":368098,"internal_node_id":"0.0-3.0-1.69"},{"rt":null,"stimulus":"<div style=\"font-size:60px;\">+</div>","key_press":null,"test_part":"fixation","trial_type":"html-keyboard-response","trial_index":143,"time_elapsed":368701,"internal_node_id":"0.0-3.0-0.70"},{"rt":1138.1199997849762,"correct":true,"stimulus":"stimulus/A3.jpg","key_press":65,"total":"exp","test_part":"train","correct_response":"A","trial_type":"categorize-image","trial_index":144,"time_elapsed":371849,"internal_node_id":"0.0-3.0-1.70"},{"rt":null,"stimulus":"<div style=\"font-size:60px;\">+</div>","key_press":null,"test_part":"fixation","trial_type":"html-keyboard-response","trial_index":145,"time_elapsed":372652,"internal_node_id":"0.0-3.0-0.71"},{"rt":873.9950000308454,"correct":true,"stimulus":"stimulus/B14.jpg","key_press":66,"total":"exp","test_part":"train","correct_response":"B","trial_type":"categorize-image","trial_index":146,"time_elapsed":375538,"internal_node_id":"0.0-3.0-1.71"},{"rt":null,"stimulus":"<div style=\"font-size:60px;\">+</div>","key_press":null,"test_part":"fixation","trial_type":"html-keyboard-response","trial_index":147,"time_elapsed":376341,"internal_node_id":"0.0-3.0-0.72"},{"rt":916.5750001557171,"correct":false,"stimulus":"stimulus/A6.jpg","key_press":66,"total":"exp","test_part":"train","correct_response":"A","trial_type":"categorize-image","trial_index":148,"time_elapsed":379266,"internal_node_id":"0.0-3.0-1.72"},{"rt":null,"stimulus":"<div style=\"font-size:60px;\">+</div>","key_press":null,"test_part":"fixation","trial_type":"html-keyboard-response","trial_index":149,"time_elapsed":379869,"internal_node_id":"0.0-3.0-0.73"},{"rt":962.9349997267127,"correct":true,"stimulus":"stimulus/A4.jpg","key_press":65,"total":"exp","test_part":"train","correct_response":"A","trial_type":"categorize-image","trial_index":150,"time_elapsed":382843,"internal_node_id":"0.0-3.0-1.73"},{"rt":null,"stimulus":"<div style=\"font-size:60px;\">+</div>","key_press":null,"test_part":"fixation","trial_type":"html-keyboard-response","trial_index":151,"time_elapsed":383447,"internal_node_id":"0.0-3.0-0.74"},{"rt":1777.9449997469783,"correct":true,"stimulus":"stimulus/B12.jpg","key_press":66,"total":"exp","test_part":"train","correct_response":"B","trial_type":"categorize-image","trial_index":152,"time_elapsed":387236,"internal_node_id":"0.0-3.0-1.74"},{"rt":null,"stimulus":"<div style=\"font-size:60px;\">+</div>","key_press":null,"test_part":"fixation","trial_type":"html-keyboard-response","trial_index":153,"time_elapsed":387838,"internal_node_id":"0.0-3.0-0.75"},{"rt":1559.2799996957183,"correct":true,"stimulus":"stimulus/B13.jpg","key_press":66,"total":"exp","test_part":"train","correct_response":"B","trial_type":"categorize-image","trial_index":154,"time_elapsed":391407,"internal_node_id":"0.0-3.0-1.75"},{"rt":null,"stimulus":"<div style=\"font-size:60px;\">+</div>","key_press":null,"test_part":"fixation","trial_type":"html-keyboard-response","trial_index":155,"time_elapsed":392008,"internal_node_id":"0.0-3.0-0.76"},{"rt":1482.7999998815358,"correct":true,"stimulus":"stimulus/B11.jpg","key_press":66,"total":"exp","test_part":"train","correct_response":"B","trial_type":"categorize-image","trial_index":156,"time_elapsed":395495,"internal_node_id":"0.0-3.0-1.76"},{"rt":null,"stimulus":"<div style=\"font-size:60px;\">+</div>","key_press":null,"test_part":"fixation","trial_type":"html-keyboard-response","trial_index":157,"time_elapsed":396297,"internal_node_id":"0.0-3.0-0.77"},{"rt":1275.0949999317527,"correct":true,"stimulus":"stimulus/B10.jpg","key_press":66,"total":"exp","test_part":"train","correct_response":"B","trial_type":"categorize-image","trial_index":158,"time_elapsed":399581,"internal_node_id":"0.0-3.0-1.77"},{"rt":null,"stimulus":"<div style=\"font-size:60px;\">+</div>","key_press":null,"test_part":"fixation","trial_type":"html-keyboard-response","trial_index":159,"time_elapsed":400184,"internal_node_id":"0.0-3.0-0.78"},{"rt":2071.4549999684095,"correct":false,"stimulus":"stimulus/A5.jpg","key_press":66,"total":"exp","test_part":"train","correct_response":"A","trial_type":"categorize-image","trial_index":160,"time_elapsed":404266,"internal_node_id":"0.0-3.0-1.78"},{"rt":null,"stimulus":"<div style=\"font-size:60px;\">+</div>","key_press":null,"test_part":"fixation","trial_type":"html-keyboard-response","trial_index":161,"time_elapsed":404870,"internal_node_id":"0.0-3.0-0.79"},{"rt":983.4400000981987,"correct":true,"stimulus":"stimulus/A7.jpg","key_press":65,"total":"exp","test_part":"train","correct_response":"A","trial_type":"categorize-image","trial_index":162,"time_elapsed":407865,"internal_node_id":"0.0-3.0-1.79"},{"rt":null,"stimulus":"<div style=\"font-size:60px;\">+</div>","key_press":null,"test_part":"fixation","trial_type":"html-keyboard-response","trial_index":163,"time_elapsed":408468,"internal_node_id":"0.0-3.0-0.80"},{"rt":1033.019999973476,"correct":true,"stimulus":"stimulus/A6.jpg","key_press":65,"total":"exp","test_part":"train","correct_response":"A","trial_type":"categorize-image","trial_index":164,"time_elapsed":411508,"internal_node_id":"0.0-3.0-1.80"},{"rt":null,"stimulus":"<div style=\"font-size:60px;\">+</div>","key_press":null,"test_part":"fixation","trial_type":"html-keyboard-response","trial_index":165,"time_elapsed":412312,"internal_node_id":"0.0-3.0-0.81"},{"rt":817.6449998281896,"correct":true,"stimulus":"stimulus/A3.jpg","key_press":65,"total":"exp","test_part":"train","correct_response":"A","trial_type":"categorize-image","trial_index":166,"time_elapsed":415139,"internal_node_id":"0.0-3.0-1.81"},{"rt":null,"stimulus":"<div style=\"font-size:60px;\">+</div>","key_press":null,"test_part":"fixation","trial_type":"html-keyboard-response","trial_index":167,"time_elapsed":415943,"internal_node_id":"0.0-3.0-0.82"},{"rt":1282.2750001214445,"correct":true,"stimulus":"stimulus/A5.jpg","key_press":65,"total":"exp","test_part":"train","correct_response":"A","trial_type":"categorize-image","trial_index":168,"time_elapsed":419236,"internal_node_id":"0.0-3.0-1.82"},{"rt":null,"stimulus":"<div style=\"font-size:60px;\">+</div>","key_press":null,"test_part":"fixation","trial_type":"html-keyboard-response","trial_index":169,"time_elapsed":420039,"internal_node_id":"0.0-3.0-0.83"},{"rt":1089.6550002507865,"correct":true,"stimulus":"stimulus/B14.jpg","key_press":66,"total":"exp","test_part":"train","correct_response":"B","trial_type":"categorize-image","trial_index":170,"time_elapsed":423140,"internal_node_id":"0.0-3.0-1.83"},{"rt":null,"stimulus":"<div style=\"font-size:60px;\">+</div>","key_press":null,"test_part":"fixation","trial_type":"html-keyboard-response","trial_index":171,"time_elapsed":423744,"internal_node_id":"0.0-3.0-0.84"},{"rt":1157.1399997919798,"correct":true,"stimulus":"stimulus/B11.jpg","key_press":66,"total":"exp","test_part":"train","correct_response":"B","trial_type":"categorize-image","trial_index":172,"time_elapsed":426912,"internal_node_id":"0.0-3.0-1.84"},{"rt":null,"stimulus":"<div style=\"font-size:60px;\">+</div>","key_press":null,"test_part":"fixation","trial_type":"html-keyboard-response","trial_index":173,"time_elapsed":427715,"internal_node_id":"0.0-3.0-0.85"},{"rt":712.050000205636,"correct":true,"stimulus":"stimulus/B13.jpg","key_press":66,"total":"exp","test_part":"train","correct_response":"B","trial_type":"categorize-image","trial_index":174,"time_elapsed":430437,"internal_node_id":"0.0-3.0-1.85"},{"rt":null,"stimulus":"<div style=\"font-size:60px;\">+</div>","key_press":null,"test_part":"fixation","trial_type":"html-keyboard-response","trial_index":175,"time_elapsed":431241,"internal_node_id":"0.0-3.0-0.86"},{"rt":745.1599999330938,"correct":true,"stimulus":"stimulus/A4.jpg","key_press":65,"total":"exp","test_part":"train","correct_response":"A","trial_type":"categorize-image","trial_index":176,"time_elapsed":433995,"internal_node_id":"0.0-3.0-1.86"},{"rt":null,"stimulus":"<div style=\"font-size:60px;\">+</div>","key_press":null,"test_part":"fixation","trial_type":"html-keyboard-response","trial_index":177,"time_elapsed":434598,"internal_node_id":"0.0-3.0-0.87"},{"rt":1124.9449998140335,"correct":false,"stimulus":"stimulus/B10.jpg","key_press":65,"total":"exp","test_part":"train","correct_response":"B","trial_type":"categorize-image","trial_index":178,"time_elapsed":437726,"internal_node_id":"0.0-3.0-1.87"},{"rt":null,"stimulus":"<div style=\"font-size:60px;\">+</div>","key_press":null,"test_part":"fixation","trial_type":"html-keyboard-response","trial_index":179,"time_elapsed":438328,"internal_node_id":"0.0-3.0-0.88"},{"rt":1170.9099998697639,"correct":true,"stimulus":"stimulus/B12.jpg","key_press":66,"total":"exp","test_part":"train","correct_response":"B","trial_type":"categorize-image","trial_index":180,"time_elapsed":441506,"internal_node_id":"0.0-3.0-1.88"},{"rt":null,"stimulus":"<div style=\"font-size:60px;\">+</div>","key_press":null,"test_part":"fixation","trial_type":"html-keyboard-response","trial_index":181,"time_elapsed":442108,"internal_node_id":"0.0-3.0-0.89"},{"rt":651.1499998159707,"correct":true,"stimulus":"stimulus/A7.jpg","key_press":65,"total":"exp","test_part":"train","correct_response":"A","trial_type":"categorize-image","trial_index":182,"time_elapsed":444769,"internal_node_id":"0.0-3.0-1.89"},{"rt":null,"stimulus":"<div style=\"font-size:60px;\">+</div>","key_press":null,"test_part":"fixation","trial_type":"html-keyboard-response","trial_index":183,"time_elapsed":445573,"internal_node_id":"0.0-3.0-0.90"},{"rt":952.0600000396371,"correct":true,"stimulus":"stimulus/A4.jpg","key_press":65,"total":"exp","test_part":"train","correct_response":"A","trial_type":"categorize-image","trial_index":184,"time_elapsed":448535,"internal_node_id":"0.0-3.0-1.90"},{"rt":null,"stimulus":"<div style=\"font-size:60px;\">+</div>","key_press":null,"test_part":"fixation","trial_type":"html-keyboard-response","trial_index":185,"time_elapsed":449138,"internal_node_id":"0.0-3.0-0.91"},{"rt":921.085000038147,"correct":true,"stimulus":"stimulus/A3.jpg","key_press":65,"total":"exp","test_part":"train","correct_response":"A","trial_type":"categorize-image","trial_index":186,"time_elapsed":452070,"internal_node_id":"0.0-3.0-1.91"},{"rt":null,"stimulus":"<div style=\"font-size:60px;\">+</div>","key_press":null,"test_part":"fixation","trial_type":"html-keyboard-response","trial_index":187,"time_elapsed":452874,"internal_node_id":"0.0-3.0-0.92"},{"rt":1454.6399996615946,"correct":true,"stimulus":"stimulus/A7.jpg","key_press":65,"total":"exp","test_part":"train","correct_response":"A","trial_type":"categorize-image","trial_index":188,"time_elapsed":456338,"internal_node_id":"0.0-3.0-1.92"},{"rt":null,"stimulus":"<div style=\"font-size:60px;\">+</div>","key_press":null,"test_part":"fixation","trial_type":"html-keyboard-response","trial_index":189,"time_elapsed":456941,"internal_node_id":"0.0-3.0-0.93"},{"rt":1632.7149998396635,"correct":true,"stimulus":"stimulus/B12.jpg","key_press":66,"total":"exp","test_part":"train","correct_response":"B","trial_type":"categorize-image","trial_index":190,"time_elapsed":460584,"internal_node_id":"0.0-3.0-1.93"},{"rt":null,"stimulus":"<div style=\"font-size:60px;\">+</div>","key_press":null,"test_part":"fixation","trial_type":"html-keyboard-response","trial_index":191,"time_elapsed":461188,"internal_node_id":"0.0-3.0-0.94"},{"rt":2009.5150000415742,"correct":true,"stimulus":"stimulus/B14.jpg","key_press":66,"total":"exp","test_part":"train","correct_response":"B","trial_type":"categorize-image","trial_index":192,"time_elapsed":465207,"internal_node_id":"0.0-3.0-1.94"},{"rt":null,"stimulus":"<div style=\"font-size:60px;\">+</div>","key_press":null,"test_part":"fixation","trial_type":"html-keyboard-response","trial_index":193,"time_elapsed":466010,"internal_node_id":"0.0-3.0-0.95"},{"rt":798.6849998123944,"correct":true,"stimulus":"stimulus/B10.jpg","key_press":66,"total":"exp","test_part":"train","correct_response":"B","trial_type":"categorize-image","trial_index":194,"time_elapsed":468820,"internal_node_id":"0.0-3.0-1.95"},{"rt":null,"stimulus":"<div style=\"font-size:60px;\">+</div>","key_press":null,"test_part":"fixation","trial_type":"html-keyboard-response","trial_index":195,"time_elapsed":469423,"internal_node_id":"0.0-3.0-0.96"},{"rt":947.8099998086691,"correct":true,"stimulus":"stimulus/B13.jpg","key_press":66,"total":"exp","test_part":"train","correct_response":"B","trial_type":"categorize-image","trial_index":196,"time_elapsed":472381,"internal_node_id":"0.0-3.0-1.96"},{"rt":null,"stimulus":"<div style=\"font-size:60px;\">+</div>","key_press":null,"test_part":"fixation","trial_type":"html-keyboard-response","trial_index":197,"time_elapsed":472982,"internal_node_id":"0.0-3.0-0.97"},{"rt":1206.925000064075,"correct":false,"stimulus":"stimulus/A6.jpg","key_press":66,"total":"exp","test_part":"train","correct_response":"A","trial_type":"categorize-image","trial_index":198,"time_elapsed":476193,"internal_node_id":"0.0-3.0-1.97"},{"rt":null,"stimulus":"<div style=\"font-size:60px;\">+</div>","key_press":null,"test_part":"fixation","trial_type":"html-keyboard-response","trial_index":199,"time_elapsed":476795,"internal_node_id":"0.0-3.0-0.98"},{"rt":1070.6950002349913,"correct":true,"stimulus":"stimulus/A5.jpg","key_press":65,"total":"exp","test_part":"train","correct_response":"A","trial_type":"categorize-image","trial_index":200,"time_elapsed":479877,"internal_node_id":"0.0-3.0-1.98"},{"rt":null,"stimulus":"<div style=\"font-size:60px;\">+</div>","key_press":null,"test_part":"fixation","trial_type":"html-keyboard-response","trial_index":201,"time_elapsed":480480,"internal_node_id":"0.0-3.0-0.99"},{"rt":1003.0350000597537,"correct":true,"stimulus":"stimulus/B11.jpg","key_press":66,"total":"exp","test_part":"train","correct_response":"B","trial_type":"categorize-image","trial_index":202,"time_elapsed":483491,"internal_node_id":"0.0-3.0-1.99"},{"rt":null,"stimulus":"<div style=\"font-size:60px;\">+</div>","key_press":null,"test_part":"fixation","trial_type":"html-keyboard-response","trial_index":203,"time_elapsed":484295,"internal_node_id":"0.0-3.0-0.100"},{"rt":723.689999897033,"correct":true,"stimulus":"stimulus/A6.jpg","key_press":65,"total":"exp","test_part":"train","correct_response":"A","trial_type":"categorize-image","trial_index":204,"time_elapsed":487030,"internal_node_id":"0.0-3.0-1.100"},{"rt":null,"stimulus":"<div style=\"font-size:60px;\">+</div>","key_press":null,"test_part":"fixation","trial_type":"html-keyboard-response","trial_index":205,"time_elapsed":487634,"internal_node_id":"0.0-3.0-0.101"},{"rt":1209.9000001326203,"correct":true,"stimulus":"stimulus/B11.jpg","key_press":66,"total":"exp","test_part":"train","correct_response":"B","trial_type":"categorize-image","trial_index":206,"time_elapsed":490854,"internal_node_id":"0.0-3.0-1.101"},{"rt":null,"stimulus":"<div style=\"font-size:60px;\">+</div>","key_press":null,"test_part":"fixation","trial_type":"html-keyboard-response","trial_index":207,"time_elapsed":491457,"internal_node_id":"0.0-3.0-0.102"},{"rt":808.8850001804531,"correct":true,"stimulus":"stimulus/A4.jpg","key_press":65,"total":"exp","test_part":"train","correct_response":"A","trial_type":"categorize-image","trial_index":208,"time_elapsed":494278,"internal_node_id":"0.0-3.0-1.102"},{"rt":null,"stimulus":"<div style=\"font-size:60px;\">+</div>","key_press":null,"test_part":"fixation","trial_type":"html-keyboard-response","trial_index":209,"time_elapsed":494880,"internal_node_id":"0.0-3.0-0.103"},{"rt":1073.629999998957,"correct":true,"stimulus":"stimulus/B14.jpg","key_press":66,"total":"exp","test_part":"train","correct_response":"B","trial_type":"categorize-image","trial_index":210,"time_elapsed":497962,"internal_node_id":"0.0-3.0-1.103"},{"rt":null,"stimulus":"<div style=\"font-size:60px;\">+</div>","key_press":null,"test_part":"fixation","trial_type":"html-keyboard-response","trial_index":211,"time_elapsed":498765,"internal_node_id":"0.0-3.0-0.104"},{"rt":1675.74999993667,"correct":true,"stimulus":"stimulus/A5.jpg","key_press":65,"total":"exp","test_part":"train","correct_response":"A","trial_type":"categorize-image","trial_index":212,"time_elapsed":502450,"internal_node_id":"0.0-3.0-1.104"},{"rt":null,"stimulus":"<div style=\"font-size:60px;\">+</div>","key_press":null,"test_part":"fixation","trial_type":"html-keyboard-response","trial_index":213,"time_elapsed":503053,"internal_node_id":"0.0-3.0-0.105"},{"rt":1861.9749997742474,"correct":true,"stimulus":"stimulus/B12.jpg","key_press":66,"total":"exp","test_part":"train","correct_response":"B","trial_type":"categorize-image","trial_index":214,"time_elapsed":506926,"internal_node_id":"0.0-3.0-1.105"},{"rt":null,"stimulus":"<div style=\"font-size:60px;\">+</div>","key_press":null,"test_part":"fixation","trial_type":"html-keyboard-response","trial_index":215,"time_elapsed":507730,"internal_node_id":"0.0-3.0-0.106"},{"rt":1233.8150003924966,"correct":true,"stimulus":"stimulus/A7.jpg","key_press":65,"total":"exp","test_part":"train","correct_response":"A","trial_type":"categorize-image","trial_index":216,"time_elapsed":510975,"internal_node_id":"0.0-3.0-1.106"},{"rt":null,"stimulus":"<div style=\"font-size:60px;\">+</div>","key_press":null,"test_part":"fixation","trial_type":"html-keyboard-response","trial_index":217,"time_elapsed":511778,"internal_node_id":"0.0-3.0-0.107"},{"rt":1170.189999975264,"correct":true,"stimulus":"stimulus/A3.jpg","key_press":65,"total":"exp","test_part":"train","correct_response":"A","trial_type":"categorize-image","trial_index":218,"time_elapsed":514958,"internal_node_id":"0.0-3.0-1.107"},{"rt":null,"stimulus":"<div style=\"font-size:60px;\">+</div>","key_press":null,"test_part":"fixation","trial_type":"html-keyboard-response","trial_index":219,"time_elapsed":515761,"internal_node_id":"0.0-3.0-0.108"},{"rt":833.6649998091161,"correct":true,"stimulus":"stimulus/B13.jpg","key_press":66,"total":"exp","test_part":"train","correct_response":"B","trial_type":"categorize-image","trial_index":220,"time_elapsed":518604,"internal_node_id":"0.0-3.0-1.108"},{"rt":null,"stimulus":"<div style=\"font-size:60px;\">+</div>","key_press":null,"test_part":"fixation","trial_type":"html-keyboard-response","trial_index":221,"time_elapsed":519207,"internal_node_id":"0.0-3.0-0.109"},{"rt":2565.2549997903407,"correct":false,"stimulus":"stimulus/B10.jpg","key_press":65,"total":"exp","test_part":"train","correct_response":"B","trial_type":"categorize-image","trial_index":222,"time_elapsed":523780,"internal_node_id":"0.0-3.0-1.109"},{"rt":null,"stimulus":"<div style=\"font-size:60px;\">+</div>","key_press":null,"test_part":"fixation","trial_type":"html-keyboard-response","trial_index":223,"time_elapsed":524582,"internal_node_id":"0.0-3.0-0.110"},{"rt":939.3349997699261,"correct":false,"stimulus":"stimulus/B14.jpg","key_press":65,"total":"exp","test_part":"train","correct_response":"B","trial_type":"categorize-image","trial_index":224,"time_elapsed":527526,"internal_node_id":"0.0-3.0-1.110"},{"rt":null,"stimulus":"<div style=\"font-size:60px;\">+</div>","key_press":null,"test_part":"fixation","trial_type":"html-keyboard-response","trial_index":225,"time_elapsed":528329,"internal_node_id":"0.0-3.0-0.111"},{"rt":793.4949998743832,"correct":true,"stimulus":"stimulus/A4.jpg","key_press":65,"total":"exp","test_part":"train","correct_response":"A","trial_type":"categorize-image","trial_index":226,"time_elapsed":531134,"internal_node_id":"0.0-3.0-1.111"},{"rt":null,"stimulus":"<div style=\"font-size:60px;\">+</div>","key_press":null,"test_part":"fixation","trial_type":"html-keyboard-response","trial_index":227,"time_elapsed":531737,"internal_node_id":"0.0-3.0-0.112"},{"rt":1087.7999998629093,"correct":true,"stimulus":"stimulus/B10.jpg","key_press":66,"total":"exp","test_part":"train","correct_response":"B","trial_type":"categorize-image","trial_index":228,"time_elapsed":534834,"internal_node_id":"0.0-3.0-1.112"},{"rt":null,"stimulus":"<div style=\"font-size:60px;\">+</div>","key_press":null,"test_part":"fixation","trial_type":"html-keyboard-response","trial_index":229,"time_elapsed":535637,"internal_node_id":"0.0-3.0-0.113"},{"rt":821.8049998395145,"correct":true,"stimulus":"stimulus/A3.jpg","key_press":65,"total":"exp","test_part":"train","correct_response":"A","trial_type":"categorize-image","trial_index":230,"time_elapsed":538471,"internal_node_id":"0.0-3.0-1.113"},{"rt":null,"stimulus":"<div style=\"font-size:60px;\">+</div>","key_press":null,"test_part":"fixation","trial_type":"html-keyboard-response","trial_index":231,"time_elapsed":539074,"internal_node_id":"0.0-3.0-0.114"},{"rt":1315.7099997624755,"correct":true,"stimulus":"stimulus/B13.jpg","key_press":66,"total":"exp","test_part":"train","correct_response":"B","trial_type":"categorize-image","trial_index":232,"time_elapsed":542401,"internal_node_id":"0.0-3.0-1.114"},{"rt":null,"stimulus":"<div style=\"font-size:60px;\">+</div>","key_press":null,"test_part":"fixation","trial_type":"html-keyboard-response","trial_index":233,"time_elapsed":543204,"internal_node_id":"0.0-3.0-0.115"},{"rt":3708.494999911636,"correct":true,"stimulus":"stimulus/A7.jpg","key_press":65,"total":"exp","test_part":"train","correct_response":"A","trial_type":"categorize-image","trial_index":234,"time_elapsed":548923,"internal_node_id":"0.0-3.0-1.115"},{"rt":null,"stimulus":"<div style=\"font-size:60px;\">+</div>","key_press":null,"test_part":"fixation","trial_type":"html-keyboard-response","trial_index":235,"time_elapsed":549727,"internal_node_id":"0.0-3.0-0.116"},{"rt":694.5199999026954,"correct":true,"stimulus":"stimulus/A5.jpg","key_press":65,"total":"exp","test_part":"train","correct_response":"A","trial_type":"categorize-image","trial_index":236,"time_elapsed":552433,"internal_node_id":"0.0-3.0-1.116"},{"rt":null,"stimulus":"<div style=\"font-size:60px;\">+</div>","key_press":null,"test_part":"fixation","trial_type":"html-keyboard-response","trial_index":237,"time_elapsed":553035,"internal_node_id":"0.0-3.0-0.117"},{"rt":744.3400002084672,"correct":true,"stimulus":"stimulus/B11.jpg","key_press":66,"total":"exp","test_part":"train","correct_response":"B","trial_type":"categorize-image","trial_index":238,"time_elapsed":555789,"internal_node_id":"0.0-3.0-1.117"},{"rt":null,"stimulus":"<div style=\"font-size:60px;\">+</div>","key_press":null,"test_part":"fixation","trial_type":"html-keyboard-response","trial_index":239,"time_elapsed":556392,"internal_node_id":"0.0-3.0-0.118"},{"rt":674.3100001476705,"correct":false,"stimulus":"stimulus/A6.jpg","key_press":66,"total":"exp","test_part":"train","correct_response":"A","trial_type":"categorize-image","trial_index":240,"time_elapsed":559074,"internal_node_id":"0.0-3.0-1.118"},{"rt":null,"stimulus":"<div style=\"font-size:60px;\">+</div>","key_press":null,"test_part":"fixation","trial_type":"html-keyboard-response","trial_index":241,"time_elapsed":559678,"internal_node_id":"0.0-3.0-0.119"},{"rt":742.1800000593066,"correct":true,"stimulus":"stimulus/B12.jpg","key_press":66,"total":"exp","test_part":"train","correct_response":"B","trial_type":"categorize-image","trial_index":242,"time_elapsed":562430,"internal_node_id":"0.0-3.0-1.119"},{"rt":null,"stimulus":"<div style=\"font-size:60px;\">+</div>","key_press":null,"test_part":"fixation","trial_type":"html-keyboard-response","trial_index":243,"time_elapsed":563234,"internal_node_id":"0.0-3.0-0.120"},{"rt":684.1199998743832,"correct":true,"stimulus":"stimulus/B11.jpg","key_press":66,"total":"exp","test_part":"train","correct_response":"B","trial_type":"categorize-image","trial_index":244,"time_elapsed":565928,"internal_node_id":"0.0-3.0-1.120"},{"rt":null,"stimulus":"<div style=\"font-size:60px;\">+</div>","key_press":null,"test_part":"fixation","trial_type":"html-keyboard-response","trial_index":245,"time_elapsed":566731,"internal_node_id":"0.0-3.0-0.121"},{"rt":1072.575000114739,"correct":true,"stimulus":"stimulus/B10.jpg","key_press":66,"total":"exp","test_part":"train","correct_response":"B","trial_type":"categorize-image","trial_index":246,"time_elapsed":569811,"internal_node_id":"0.0-3.0-1.121"},{"rt":null,"stimulus":"<div style=\"font-size:60px;\">+</div>","key_press":null,"test_part":"fixation","trial_type":"html-keyboard-response","trial_index":247,"time_elapsed":570414,"internal_node_id":"0.0-3.0-0.122"},{"rt":1297.7649997919798,"correct":true,"stimulus":"stimulus/A6.jpg","key_press":65,"total":"exp","test_part":"train","correct_response":"A","trial_type":"categorize-image","trial_index":248,"time_elapsed":573722,"internal_node_id":"0.0-3.0-1.122"},{"rt":null,"stimulus":"<div style=\"font-size:60px;\">+</div>","key_press":null,"test_part":"fixation","trial_type":"html-keyboard-response","trial_index":249,"time_elapsed":574325,"internal_node_id":"0.0-3.0-0.123"},{"rt":858.585000038147,"correct":true,"stimulus":"stimulus/A5.jpg","key_press":65,"total":"exp","test_part":"train","correct_response":"A","trial_type":"categorize-image","trial_index":250,"time_elapsed":577193,"internal_node_id":"0.0-3.0-1.123"},{"rt":null,"stimulus":"<div style=\"font-size:60px;\">+</div>","key_press":null,"test_part":"fixation","trial_type":"html-keyboard-response","trial_index":251,"time_elapsed":577996,"internal_node_id":"0.0-3.0-0.124"},{"rt":1202.5250000879169,"correct":false,"stimulus":"stimulus/A7.jpg","key_press":66,"total":"exp","test_part":"train","correct_response":"A","trial_type":"categorize-image","trial_index":252,"time_elapsed":581209,"internal_node_id":"0.0-3.0-1.124"},{"rt":null,"stimulus":"<div style=\"font-size:60px;\">+</div>","key_press":null,"test_part":"fixation","trial_type":"html-keyboard-response","trial_index":253,"time_elapsed":581812,"internal_node_id":"0.0-3.0-0.125"},{"rt":985.9899999573827,"correct":true,"stimulus":"stimulus/A4.jpg","key_press":65,"total":"exp","test_part":"train","correct_response":"A","trial_type":"categorize-image","trial_index":254,"time_elapsed":584813,"internal_node_id":"0.0-3.0-1.125"},{"rt":null,"stimulus":"<div style=\"font-size:60px;\">+</div>","key_press":null,"test_part":"fixation","trial_type":"html-keyboard-response","trial_index":255,"time_elapsed":585418,"internal_node_id":"0.0-3.0-0.126"},{"rt":1048.200000077486,"correct":true,"stimulus":"stimulus/A3.jpg","key_press":65,"total":"exp","test_part":"train","correct_response":"A","trial_type":"categorize-image","trial_index":256,"time_elapsed":588478,"internal_node_id":"0.0-3.0-1.126"},{"rt":null,"stimulus":"<div style=\"font-size:60px;\">+</div>","key_press":null,"test_part":"fixation","trial_type":"html-keyboard-response","trial_index":257,"time_elapsed":589081,"internal_node_id":"0.0-3.0-0.127"},{"rt":803.5949999466538,"correct":true,"stimulus":"stimulus/B12.jpg","key_press":66,"total":"exp","test_part":"train","correct_response":"B","trial_type":"categorize-image","trial_index":258,"time_elapsed":591895,"internal_node_id":"0.0-3.0-1.127"},{"rt":null,"stimulus":"<div style=\"font-size:60px;\">+</div>","key_press":null,"test_part":"fixation","trial_type":"html-keyboard-response","trial_index":259,"time_elapsed":592498,"internal_node_id":"0.0-3.0-0.128"},{"rt":776.8899998627603,"correct":true,"stimulus":"stimulus/B14.jpg","key_press":66,"total":"exp","test_part":"train","correct_response":"B","trial_type":"categorize-image","trial_index":260,"time_elapsed":595288,"internal_node_id":"0.0-3.0-1.128"},{"rt":null,"stimulus":"<div style=\"font-size:60px;\">+</div>","key_press":null,"test_part":"fixation","trial_type":"html-keyboard-response","trial_index":261,"time_elapsed":595891,"internal_node_id":"0.0-3.0-0.129"},{"rt":785.2600002661347,"correct":true,"stimulus":"stimulus/B13.jpg","key_press":66,"total":"exp","test_part":"train","correct_response":"B","trial_type":"categorize-image","trial_index":262,"time_elapsed":598686,"internal_node_id":"0.0-3.0-1.129"},{"rt":null,"stimulus":"<div style=\"font-size:60px;\">+</div>","key_press":null,"test_part":"fixation","trial_type":"html-keyboard-response","trial_index":263,"time_elapsed":599489,"internal_node_id":"0.0-3.0-0.130"},{"rt":680.3100001998246,"correct":true,"stimulus":"stimulus/B10.jpg","key_press":66,"total":"exp","test_part":"train","correct_response":"B","trial_type":"categorize-image","trial_index":264,"time_elapsed":602179,"internal_node_id":"0.0-3.0-1.130"},{"rt":null,"stimulus":"<div style=\"font-size:60px;\">+</div>","key_press":null,"test_part":"fixation","trial_type":"html-keyboard-response","trial_index":265,"time_elapsed":602981,"internal_node_id":"0.0-3.0-0.131"},{"rt":1068.7000001780689,"correct":true,"stimulus":"stimulus/A7.jpg","key_press":65,"total":"exp","test_part":"train","correct_response":"A","trial_type":"categorize-image","trial_index":266,"time_elapsed":606056,"internal_node_id":"0.0-3.0-1.131"},{"rt":null,"stimulus":"<div style=\"font-size:60px;\">+</div>","key_press":null,"test_part":"fixation","trial_type":"html-keyboard-response","trial_index":267,"time_elapsed":606860,"internal_node_id":"0.0-3.0-0.132"},{"rt":695.5099999904633,"correct":true,"stimulus":"stimulus/A5.jpg","key_press":65,"total":"exp","test_part":"train","correct_response":"A","trial_type":"categorize-image","trial_index":268,"time_elapsed":609561,"internal_node_id":"0.0-3.0-1.132"},{"rt":null,"stimulus":"<div style=\"font-size:60px;\">+</div>","key_press":null,"test_part":"fixation","trial_type":"html-keyboard-response","trial_index":269,"time_elapsed":610164,"internal_node_id":"0.0-3.0-0.133"},{"rt":1061.465000268072,"correct":true,"stimulus":"stimulus/A4.jpg","key_press":65,"total":"exp","test_part":"train","correct_response":"A","trial_type":"categorize-image","trial_index":270,"time_elapsed":613234,"internal_node_id":"0.0-3.0-1.133"},{"rt":null,"stimulus":"<div style=\"font-size:60px;\">+</div>","key_press":null,"test_part":"fixation","trial_type":"html-keyboard-response","trial_index":271,"time_elapsed":614037,"internal_node_id":"0.0-3.0-0.134"},{"rt":818.6249998398125,"correct":false,"stimulus":"stimulus/A6.jpg","key_press":66,"total":"exp","test_part":"train","correct_response":"A","trial_type":"categorize-image","trial_index":272,"time_elapsed":616866,"internal_node_id":"0.0-3.0-1.134"},{"rt":null,"stimulus":"<div style=\"font-size:60px;\">+</div>","key_press":null,"test_part":"fixation","trial_type":"html-keyboard-response","trial_index":273,"time_elapsed":617469,"internal_node_id":"0.0-3.0-0.135"},{"rt":763.6649999767542,"correct":true,"stimulus":"stimulus/A3.jpg","key_press":65,"total":"exp","test_part":"train","correct_response":"A","trial_type":"categorize-image","trial_index":274,"time_elapsed":620242,"internal_node_id":"0.0-3.0-1.135"},{"rt":null,"stimulus":"<div style=\"font-size:60px;\">+</div>","key_press":null,"test_part":"fixation","trial_type":"html-keyboard-response","trial_index":275,"time_elapsed":621047,"internal_node_id":"0.0-3.0-0.136"},{"rt":697.4949999712408,"correct":true,"stimulus":"stimulus/B13.jpg","key_press":66,"total":"exp","test_part":"train","correct_response":"B","trial_type":"categorize-image","trial_index":276,"time_elapsed":623754,"internal_node_id":"0.0-3.0-1.136"},{"rt":null,"stimulus":"<div style=\"font-size:60px;\">+</div>","key_press":null,"test_part":"fixation","trial_type":"html-keyboard-response","trial_index":277,"time_elapsed":624356,"internal_node_id":"0.0-3.0-0.137"},{"rt":696.155000012368,"correct":true,"stimulus":"stimulus/B11.jpg","key_press":66,"total":"exp","test_part":"train","correct_response":"B","trial_type":"categorize-image","trial_index":278,"time_elapsed":627063,"internal_node_id":"0.0-3.0-1.137"},{"rt":null,"stimulus":"<div style=\"font-size:60px;\">+</div>","key_press":null,"test_part":"fixation","trial_type":"html-keyboard-response","trial_index":279,"time_elapsed":627872,"internal_node_id":"0.0-3.0-0.138"},{"rt":1078.7900001741946,"correct":true,"stimulus":"stimulus/B14.jpg","key_press":66,"total":"exp","test_part":"train","correct_response":"B","trial_type":"categorize-image","trial_index":280,"time_elapsed":630964,"internal_node_id":"0.0-3.0-1.138"},{"rt":null,"stimulus":"<div style=\"font-size:60px;\">+</div>","key_press":null,"test_part":"fixation","trial_type":"html-keyboard-response","trial_index":281,"time_elapsed":631567,"internal_node_id":"0.0-3.0-0.139"},{"rt":739.6749998442829,"correct":true,"stimulus":"stimulus/B12.jpg","key_press":66,"total":"exp","test_part":"train","correct_response":"B","trial_type":"categorize-image","trial_index":282,"time_elapsed":634316,"internal_node_id":"0.0-3.0-1.139"},{"rt":null,"stimulus":"<div style=\"font-size:60px;\">+</div>","key_press":null,"test_part":"fixation","trial_type":"html-keyboard-response","trial_index":283,"time_elapsed":635119,"internal_node_id":"0.0-3.0-0.140"},{"rt":915.3900002129376,"correct":true,"stimulus":"stimulus/A6.jpg","key_press":65,"total":"exp","test_part":"train","correct_response":"A","trial_type":"categorize-image","trial_index":284,"time_elapsed":638044,"internal_node_id":"0.0-3.0-1.140"},{"rt":null,"stimulus":"<div style=\"font-size:60px;\">+</div>","key_press":null,"test_part":"fixation","trial_type":"html-keyboard-response","trial_index":285,"time_elapsed":638847,"internal_node_id":"0.0-3.0-0.141"},{"rt":1166.7749998159707,"correct":true,"stimulus":"stimulus/B14.jpg","key_press":66,"total":"exp","test_part":"train","correct_response":"B","trial_type":"categorize-image","trial_index":286,"time_elapsed":642026,"internal_node_id":"0.0-3.0-1.141"},{"rt":null,"stimulus":"<div style=\"font-size:60px;\">+</div>","key_press":null,"test_part":"fixation","trial_type":"html-keyboard-response","trial_index":287,"time_elapsed":642829,"internal_node_id":"0.0-3.0-0.142"},{"rt":937.3949998989701,"correct":true,"stimulus":"stimulus/A5.jpg","key_press":65,"total":"exp","test_part":"train","correct_response":"A","trial_type":"categorize-image","trial_index":288,"time_elapsed":645776,"internal_node_id":"0.0-3.0-1.142"},{"rt":null,"stimulus":"<div style=\"font-size:60px;\">+</div>","key_press":null,"test_part":"fixation","trial_type":"html-keyboard-response","trial_index":289,"time_elapsed":646579,"internal_node_id":"0.0-3.0-0.143"},{"rt":1839.0999999828637,"correct":true,"stimulus":"stimulus/A4.jpg","key_press":65,"total":"exp","test_part":"train","correct_response":"A","trial_type":"categorize-image","trial_index":290,"time_elapsed":650426,"internal_node_id":"0.0-3.0-1.143"},{"rt":null,"stimulus":"<div style=\"font-size:60px;\">+</div>","key_press":null,"test_part":"fixation","trial_type":"html-keyboard-response","trial_index":291,"time_elapsed":651230,"internal_node_id":"0.0-3.0-0.144"},{"rt":656.6499997861683,"correct":true,"stimulus":"stimulus/B11.jpg","key_press":66,"total":"exp","test_part":"train","correct_response":"B","trial_type":"categorize-image","trial_index":292,"time_elapsed":653898,"internal_node_id":"0.0-3.0-1.144"},{"rt":null,"stimulus":"<div style=\"font-size:60px;\">+</div>","key_press":null,"test_part":"fixation","trial_type":"html-keyboard-response","trial_index":293,"time_elapsed":654502,"internal_node_id":"0.0-3.0-0.145"},{"rt":809.04999980703,"correct":true,"stimulus":"stimulus/A3.jpg","key_press":65,"total":"exp","test_part":"train","correct_response":"A","trial_type":"categorize-image","trial_index":294,"time_elapsed":657321,"internal_node_id":"0.0-3.0-1.145"},{"rt":null,"stimulus":"<div style=\"font-size:60px;\">+</div>","key_press":null,"test_part":"fixation","trial_type":"html-keyboard-response","trial_index":295,"time_elapsed":658124,"internal_node_id":"0.0-3.0-0.146"},{"rt":666.0150000825524,"correct":true,"stimulus":"stimulus/B13.jpg","key_press":66,"total":"exp","test_part":"train","correct_response":"B","trial_type":"categorize-image","trial_index":296,"time_elapsed":660800,"internal_node_id":"0.0-3.0-1.146"},{"rt":null,"stimulus":"<div style=\"font-size:60px;\">+</div>","key_press":null,"test_part":"fixation","trial_type":"html-keyboard-response","trial_index":297,"time_elapsed":661604,"internal_node_id":"0.0-3.0-0.147"},{"rt":886.0750002786517,"correct":true,"stimulus":"stimulus/B10.jpg","key_press":66,"total":"exp","test_part":"train","correct_response":"B","trial_type":"categorize-image","trial_index":298,"time_elapsed":664500,"internal_node_id":"0.0-3.0-1.147"},{"rt":null,"stimulus":"<div style=\"font-size:60px;\">+</div>","key_press":null,"test_part":"fixation","trial_type":"html-keyboard-response","trial_index":299,"time_elapsed":665304,"internal_node_id":"0.0-3.0-0.148"},{"rt":619.185000192374,"correct":true,"stimulus":"stimulus/B12.jpg","key_press":66,"total":"exp","test_part":"train","correct_response":"B","trial_type":"categorize-image","trial_index":300,"time_elapsed":667935,"internal_node_id":"0.0-3.0-1.148"},{"rt":null,"stimulus":"<div style=\"font-size:60px;\">+</div>","key_press":null,"test_part":"fixation","trial_type":"html-keyboard-response","trial_index":301,"time_elapsed":668537,"internal_node_id":"0.0-3.0-0.149"},{"rt":696.5299998410046,"correct":false,"stimulus":"stimulus/A7.jpg","key_press":66,"total":"exp","test_part":"train","correct_response":"A","trial_type":"categorize-image","trial_index":302,"time_elapsed":671241,"internal_node_id":"0.0-3.0-1.149"},{"rt":null,"stimulus":"<div style=\"font-size:60px;\">+</div>","key_press":null,"test_part":"fixation","trial_type":"html-keyboard-response","trial_index":303,"time_elapsed":672045,"internal_node_id":"0.0-3.0-0.150"},{"rt":665.7499996945262,"correct":true,"stimulus":"stimulus/B12.jpg","key_press":66,"total":"exp","test_part":"train","correct_response":"B","trial_type":"categorize-image","trial_index":304,"time_elapsed":674722,"internal_node_id":"0.0-3.0-1.150"},{"rt":null,"stimulus":"<div style=\"font-size:60px;\">+</div>","key_press":null,"test_part":"fixation","trial_type":"html-keyboard-response","trial_index":305,"time_elapsed":675325,"internal_node_id":"0.0-3.0-0.151"},{"rt":700.9499999694526,"correct":true,"stimulus":"stimulus/B11.jpg","key_press":66,"total":"exp","test_part":"train","correct_response":"B","trial_type":"categorize-image","trial_index":306,"time_elapsed":678036,"internal_node_id":"0.0-3.0-1.151"},{"rt":null,"stimulus":"<div style=\"font-size:60px;\">+</div>","key_press":null,"test_part":"fixation","trial_type":"html-keyboard-response","trial_index":307,"time_elapsed":678839,"internal_node_id":"0.0-3.0-0.152"},{"rt":609.6850000321865,"correct":true,"stimulus":"stimulus/B13.jpg","key_press":66,"total":"exp","test_part":"train","correct_response":"B","trial_type":"categorize-image","trial_index":308,"time_elapsed":681459,"internal_node_id":"0.0-3.0-1.152"},{"rt":null,"stimulus":"<div style=\"font-size:60px;\">+</div>","key_press":null,"test_part":"fixation","trial_type":"html-keyboard-response","trial_index":309,"time_elapsed":682262,"internal_node_id":"0.0-3.0-0.153"},{"rt":607.7700001187623,"correct":false,"stimulus":"stimulus/A7.jpg","key_press":66,"total":"exp","test_part":"train","correct_response":"A","trial_type":"categorize-image","trial_index":310,"time_elapsed":684878,"internal_node_id":"0.0-3.0-1.153"},{"rt":null,"stimulus":"<div style=\"font-size:60px;\">+</div>","key_press":null,"test_part":"fixation","trial_type":"html-keyboard-response","trial_index":311,"time_elapsed":685682,"internal_node_id":"0.0-3.0-0.154"},{"rt":763.7200001627207,"correct":false,"stimulus":"stimulus/A6.jpg","key_press":66,"total":"exp","test_part":"train","correct_response":"A","trial_type":"categorize-image","trial_index":312,"time_elapsed":688450,"internal_node_id":"0.0-3.0-1.154"},{"rt":null,"stimulus":"<div style=\"font-size:60px;\">+</div>","key_press":null,"test_part":"fixation","trial_type":"html-keyboard-response","trial_index":313,"time_elapsed":689251,"internal_node_id":"0.0-3.0-0.155"},{"rt":970.5699998885393,"correct":true,"stimulus":"stimulus/B14.jpg","key_press":66,"total":"exp","test_part":"train","correct_response":"B","trial_type":"categorize-image","trial_index":314,"time_elapsed":692226,"internal_node_id":"0.0-3.0-1.155"},{"rt":null,"stimulus":"<div style=\"font-size:60px;\">+</div>","key_press":null,"test_part":"fixation","trial_type":"html-keyboard-response","trial_index":315,"time_elapsed":693029,"internal_node_id":"0.0-3.0-0.156"},{"rt":738.0499998107553,"correct":true,"stimulus":"stimulus/A3.jpg","key_press":65,"total":"exp","test_part":"train","correct_response":"A","trial_type":"categorize-image","trial_index":316,"time_elapsed":695776,"internal_node_id":"0.0-3.0-1.156"},{"rt":null,"stimulus":"<div style=\"font-size:60px;\">+</div>","key_press":null,"test_part":"fixation","trial_type":"html-keyboard-response","trial_index":317,"time_elapsed":696580,"internal_node_id":"0.0-3.0-0.157"},{"rt":729.1199997998774,"correct":true,"stimulus":"stimulus/A5.jpg","key_press":65,"total":"exp","test_part":"train","correct_response":"A","trial_type":"categorize-image","trial_index":318,"time_elapsed":699318,"internal_node_id":"0.0-3.0-1.157"},{"rt":null,"stimulus":"<div style=\"font-size:60px;\">+</div>","key_press":null,"test_part":"fixation","trial_type":"html-keyboard-response","trial_index":319,"time_elapsed":700121,"internal_node_id":"0.0-3.0-0.158"},{"rt":1748.769999947399,"correct":true,"stimulus":"stimulus/B10.jpg","key_press":66,"total":"exp","test_part":"train","correct_response":"B","trial_type":"categorize-image","trial_index":320,"time_elapsed":703881,"internal_node_id":"0.0-3.0-1.158"},{"rt":null,"stimulus":"<div style=\"font-size:60px;\">+</div>","key_press":null,"test_part":"fixation","trial_type":"html-keyboard-response","trial_index":321,"time_elapsed":704683,"internal_node_id":"0.0-3.0-0.159"},{"rt":775.3900000825524,"correct":true,"stimulus":"stimulus/A4.jpg","key_press":65,"total":"exp","test_part":"train","correct_response":"A","trial_type":"categorize-image","trial_index":322,"time_elapsed":707468,"internal_node_id":"0.0-3.0-1.159"},{"rt":null,"stimulus":"<div style=\"font-size:60px;\">+</div>","key_press":null,"test_part":"fixation","trial_type":"html-keyboard-response","trial_index":323,"time_elapsed":708071,"internal_node_id":"0.0-3.0-0.160"},{"rt":702.1099999547005,"correct":true,"stimulus":"stimulus/B12.jpg","key_press":66,"total":"exp","test_part":"train","correct_response":"B","trial_type":"categorize-image","trial_index":324,"time_elapsed":710785,"internal_node_id":"0.0-3.0-1.160"},{"rt":null,"stimulus":"<div style=\"font-size:60px;\">+</div>","key_press":null,"test_part":"fixation","trial_type":"html-keyboard-response","trial_index":325,"time_elapsed":711388,"internal_node_id":"0.0-3.0-0.161"},{"rt":655.2499998360872,"correct":true,"stimulus":"stimulus/B11.jpg","key_press":66,"total":"exp","test_part":"train","correct_response":"B","trial_type":"categorize-image","trial_index":326,"time_elapsed":714053,"internal_node_id":"0.0-3.0-1.161"},{"rt":null,"stimulus":"<div style=\"font-size:60px;\">+</div>","key_press":null,"test_part":"fixation","trial_type":"html-keyboard-response","trial_index":327,"time_elapsed":714857,"internal_node_id":"0.0-3.0-0.162"},{"rt":1080.5399999953806,"correct":true,"stimulus":"stimulus/A6.jpg","key_press":65,"total":"exp","test_part":"train","correct_response":"A","trial_type":"categorize-image","trial_index":328,"time_elapsed":717947,"internal_node_id":"0.0-3.0-1.162"},{"rt":null,"stimulus":"<div style=\"font-size:60px;\">+</div>","key_press":null,"test_part":"fixation","trial_type":"html-keyboard-response","trial_index":329,"time_elapsed":718549,"internal_node_id":"0.0-3.0-0.163"},{"rt":1376.6149999573827,"correct":true,"stimulus":"stimulus/B14.jpg","key_press":66,"total":"exp","test_part":"train","correct_response":"B","trial_type":"categorize-image","trial_index":330,"time_elapsed":721936,"internal_node_id":"0.0-3.0-1.163"},{"rt":null,"stimulus":"<div style=\"font-size:60px;\">+</div>","key_press":null,"test_part":"fixation","trial_type":"html-keyboard-response","trial_index":331,"time_elapsed":722738,"internal_node_id":"0.0-3.0-0.164"},{"rt":922.6100002415478,"correct":true,"stimulus":"stimulus/A3.jpg","key_press":65,"total":"exp","test_part":"train","correct_response":"A","trial_type":"categorize-image","trial_index":332,"time_elapsed":725666,"internal_node_id":"0.0-3.0-1.164"},{"rt":null,"stimulus":"<div style=\"font-size:60px;\">+</div>","key_press":null,"test_part":"fixation","trial_type":"html-keyboard-response","trial_index":333,"time_elapsed":726271,"internal_node_id":"0.0-3.0-0.165"},{"rt":844.4049996323884,"correct":true,"stimulus":"stimulus/A4.jpg","key_press":65,"total":"exp","test_part":"train","correct_response":"A","trial_type":"categorize-image","trial_index":334,"time_elapsed":729124,"internal_node_id":"0.0-3.0-1.165"},{"rt":null,"stimulus":"<div style=\"font-size:60px;\">+</div>","key_press":null,"test_part":"fixation","trial_type":"html-keyboard-response","trial_index":335,"time_elapsed":729726,"internal_node_id":"0.0-3.0-0.166"},{"rt":757.4450001120567,"correct":false,"stimulus":"stimulus/A7.jpg","key_press":66,"total":"exp","test_part":"train","correct_response":"A","trial_type":"categorize-image","trial_index":336,"time_elapsed":732493,"internal_node_id":"0.0-3.0-1.166"},{"rt":null,"stimulus":"<div style=\"font-size:60px;\">+</div>","key_press":null,"test_part":"fixation","trial_type":"html-keyboard-response","trial_index":337,"time_elapsed":733297,"internal_node_id":"0.0-3.0-0.167"},{"rt":758.0050001852214,"correct":true,"stimulus":"stimulus/A5.jpg","key_press":65,"total":"exp","test_part":"train","correct_response":"A","trial_type":"categorize-image","trial_index":338,"time_elapsed":736066,"internal_node_id":"0.0-3.0-1.167"},{"rt":null,"stimulus":"<div style=\"font-size:60px;\">+</div>","key_press":null,"test_part":"fixation","trial_type":"html-keyboard-response","trial_index":339,"time_elapsed":736670,"internal_node_id":"0.0-3.0-0.168"},{"rt":953.0600002035499,"correct":true,"stimulus":"stimulus/B10.jpg","key_press":66,"total":"exp","test_part":"train","correct_response":"B","trial_type":"categorize-image","trial_index":340,"time_elapsed":739629,"internal_node_id":"0.0-3.0-1.168"},{"rt":null,"stimulus":"<div style=\"font-size:60px;\">+</div>","key_press":null,"test_part":"fixation","trial_type":"html-keyboard-response","trial_index":341,"time_elapsed":740430,"internal_node_id":"0.0-3.0-0.169"},{"rt":688.459999859333,"correct":true,"stimulus":"stimulus/B13.jpg","key_press":66,"total":"exp","test_part":"train","correct_response":"B","trial_type":"categorize-image","trial_index":342,"time_elapsed":743124,"internal_node_id":"0.0-3.0-1.169"},{"rt":null,"stimulus":"<div style=\"font-size:60px;\">+</div>","key_press":null,"test_part":"fixation","trial_type":"html-keyboard-response","trial_index":343,"time_elapsed":743926,"internal_node_id":"0.0-3.0-0.170"},{"rt":604.7949995845556,"correct":true,"stimulus":"stimulus/B12.jpg","key_press":66,"total":"exp","test_part":"train","correct_response":"B","trial_type":"categorize-image","trial_index":344,"time_elapsed":746539,"internal_node_id":"0.0-3.0-1.170"},{"rt":null,"stimulus":"<div style=\"font-size:60px;\">+</div>","key_press":null,"test_part":"fixation","trial_type":"html-keyboard-response","trial_index":345,"time_elapsed":747142,"internal_node_id":"0.0-3.0-0.171"},{"rt":680.7349999435246,"correct":true,"stimulus":"stimulus/B14.jpg","key_press":66,"total":"exp","test_part":"train","correct_response":"B","trial_type":"categorize-image","trial_index":346,"time_elapsed":749832,"internal_node_id":"0.0-3.0-1.171"},{"rt":null,"stimulus":"<div style=\"font-size:60px;\">+</div>","key_press":null,"test_part":"fixation","trial_type":"html-keyboard-response","trial_index":347,"time_elapsed":750434,"internal_node_id":"0.0-3.0-0.172"},{"rt":741.5200001560152,"correct":true,"stimulus":"stimulus/B10.jpg","key_press":66,"total":"exp","test_part":"train","correct_response":"B","trial_type":"categorize-image","trial_index":348,"time_elapsed":753184,"internal_node_id":"0.0-3.0-1.172"},{"rt":null,"stimulus":"<div style=\"font-size:60px;\">+</div>","key_press":null,"test_part":"fixation","trial_type":"html-keyboard-response","trial_index":349,"time_elapsed":753987,"internal_node_id":"0.0-3.0-0.173"},{"rt":882.224999833852,"correct":true,"stimulus":"stimulus/A5.jpg","key_press":65,"total":"exp","test_part":"train","correct_response":"A","trial_type":"categorize-image","trial_index":350,"time_elapsed":756880,"internal_node_id":"0.0-3.0-1.173"},{"rt":null,"stimulus":"<div style=\"font-size:60px;\">+</div>","key_press":null,"test_part":"fixation","trial_type":"html-keyboard-response","trial_index":351,"time_elapsed":757682,"internal_node_id":"0.0-3.0-0.174"},{"rt":589.8500001057982,"correct":true,"stimulus":"stimulus/B11.jpg","key_press":66,"total":"exp","test_part":"train","correct_response":"B","trial_type":"categorize-image","trial_index":352,"time_elapsed":760283,"internal_node_id":"0.0-3.0-1.174"},{"rt":null,"stimulus":"<div style=\"font-size:60px;\">+</div>","key_press":null,"test_part":"fixation","trial_type":"html-keyboard-response","trial_index":353,"time_elapsed":760885,"internal_node_id":"0.0-3.0-0.175"},{"rt":683.980000205338,"correct":true,"stimulus":"stimulus/A4.jpg","key_press":65,"total":"exp","test_part":"train","correct_response":"A","trial_type":"categorize-image","trial_index":354,"time_elapsed":763578,"internal_node_id":"0.0-3.0-1.175"},{"rt":null,"stimulus":"<div style=\"font-size:60px;\">+</div>","key_press":null,"test_part":"fixation","trial_type":"html-keyboard-response","trial_index":355,"time_elapsed":764181,"internal_node_id":"0.0-3.0-0.176"},{"rt":632.8750001266599,"correct":false,"stimulus":"stimulus/A7.jpg","key_press":66,"total":"exp","test_part":"train","correct_response":"A","trial_type":"categorize-image","trial_index":356,"time_elapsed":766822,"internal_node_id":"0.0-3.0-1.176"},{"rt":null,"stimulus":"<div style=\"font-size:60px;\">+</div>","key_press":null,"test_part":"fixation","trial_type":"html-keyboard-response","trial_index":357,"time_elapsed":767625,"internal_node_id":"0.0-3.0-0.177"},{"rt":814.4350000657141,"correct":true,"stimulus":"stimulus/A3.jpg","key_press":65,"total":"exp","test_part":"train","correct_response":"A","trial_type":"categorize-image","trial_index":358,"time_elapsed":770450,"internal_node_id":"0.0-3.0-1.177"},{"rt":null,"stimulus":"<div style=\"font-size:60px;\">+</div>","key_press":null,"test_part":"fixation","trial_type":"html-keyboard-response","trial_index":359,"time_elapsed":771253,"internal_node_id":"0.0-3.0-0.178"},{"rt":1065.8450000919402,"correct":true,"stimulus":"stimulus/A6.jpg","key_press":65,"total":"exp","test_part":"train","correct_response":"A","trial_type":"categorize-image","trial_index":360,"time_elapsed":774328,"internal_node_id":"0.0-3.0-1.178"},{"rt":null,"stimulus":"<div style=\"font-size:60px;\">+</div>","key_press":null,"test_part":"fixation","trial_type":"html-keyboard-response","trial_index":361,"time_elapsed":775132,"internal_node_id":"0.0-3.0-0.179"},{"rt":830.8900003321469,"correct":true,"stimulus":"stimulus/B13.jpg","key_press":66,"total":"exp","test_part":"train","correct_response":"B","trial_type":"categorize-image","trial_index":362,"time_elapsed":777972,"internal_node_id":"0.0-3.0-1.179"},{"rt":9702.984999865294,"stimulus":"<p>This is the testing phase of the experiment. Feedback will NOT be provided in this session. The total number of trials in this phase are 60.<br>Press any key to begin.</p>","key_press":66,"trial_type":"html-keyboard-response","trial_index":363,"time_elapsed":787680,"internal_node_id":"0.0-4.0"},{"rt":null,"stimulus":"<div style=\"font-size:60px;\">+</div>","key_press":null,"test_part":"fixation","trial_type":"html-keyboard-response","trial_index":364,"time_elapsed":788484,"internal_node_id":"0.0-5.0-0.0"},{"rt":941.3100001402199,"correct":true,"stimulus":"stimulus/B8.jpg","key_press":66,"total":"exp","test_part":"test_prototype","correct_response":"B","trial_type":"categorize-image","trial_index":365,"time_elapsed":789442,"internal_node_id":"0.0-5.0-1.0"},{"rt":null,"stimulus":"<div style=\"font-size:60px;\">+</div>","key_press":null,"test_part":"fixation","trial_type":"html-keyboard-response","trial_index":366,"time_elapsed":790248,"internal_node_id":"0.0-5.0-0.1"},{"rt":2041.0799998790026,"correct":false,"stimulus":"stimulus/B12.jpg","key_press":65,"total":"exp","test_part":"test_seen","correct_response":"B","trial_type":"categorize-image","trial_index":367,"time_elapsed":792295,"internal_node_id":"0.0-5.0-1.1"},{"rt":null,"stimulus":"<div style=\"font-size:60px;\">+</div>","key_press":null,"test_part":"fixation","trial_type":"html-keyboard-response","trial_index":368,"time_elapsed":792898,"internal_node_id":"0.0-5.0-0.2"},{"rt":607.1699997410178,"correct":true,"stimulus":"stimulus/A2.jpg","key_press":65,"total":"exp","test_part":"test_unseen","correct_response":"A","trial_type":"categorize-image","trial_index":369,"time_elapsed":793509,"internal_node_id":"0.0-5.0-1.2"},{"rt":null,"stimulus":"<div style=\"font-size:60px;\">+</div>","key_press":null,"test_part":"fixation","trial_type":"html-keyboard-response","trial_index":370,"time_elapsed":794311,"internal_node_id":"0.0-5.0-0.3"},{"rt":994.7149995714426,"correct":true,"stimulus":"stimulus/A4.jpg","key_press":65,"total":"exp","test_part":"test_seen","correct_response":"A","trial_type":"categorize-image","trial_index":371,"time_elapsed":795313,"internal_node_id":"0.0-5.0-1.3"},{"rt":null,"stimulus":"<div style=\"font-size:60px;\">+</div>","key_press":null,"test_part":"fixation","trial_type":"html-keyboard-response","trial_index":372,"time_elapsed":795916,"internal_node_id":"0.0-5.0-0.4"},{"rt":771.6300003230572,"correct":true,"stimulus":"stimulus/A1.jpg","key_press":65,"total":"exp","test_part":"test_prototype","correct_response":"A","trial_type":"categorize-image","trial_index":373,"time_elapsed":796697,"internal_node_id":"0.0-5.0-1.4"},{"rt":null,"stimulus":"<div style=\"font-size:60px;\">+</div>","key_press":null,"test_part":"fixation","trial_type":"html-keyboard-response","trial_index":374,"time_elapsed":797302,"internal_node_id":"0.0-5.0-0.5"},{"rt":1975.1300001516938,"correct":true,"stimulus":"stimulus/B9.jpg","key_press":66,"total":"exp","test_part":"test_unseen","correct_response":"B","trial_type":"categorize-image","trial_index":375,"time_elapsed":799290,"internal_node_id":"0.0-5.0-1.5"},{"rt":null,"stimulus":"<div style=\"font-size:60px;\">+</div>","key_press":null,"test_part":"fixation","trial_type":"html-keyboard-response","trial_index":376,"time_elapsed":800095,"internal_node_id":"0.0-5.0-0.6"},{"rt":722.1450000070035,"correct":true,"stimulus":"stimulus/A2.jpg","key_press":65,"total":"exp","test_part":"test_unseen","correct_response":"A","trial_type":"categorize-image","trial_index":377,"time_elapsed":800831,"internal_node_id":"0.0-5.0-1.6"},{"rt":null,"stimulus":"<div style=\"font-size:60px;\">+</div>","key_press":null,"test_part":"fixation","trial_type":"html-keyboard-response","trial_index":378,"time_elapsed":801438,"internal_node_id":"0.0-5.0-0.7"},{"rt":815.8249999396503,"correct":true,"stimulus":"stimulus/B8.jpg","key_press":66,"total":"exp","test_part":"test_prototype","correct_response":"B","trial_type":"categorize-image","trial_index":379,"time_elapsed":802266,"internal_node_id":"0.0-5.0-1.7"},{"rt":null,"stimulus":"<div style=\"font-size:60px;\">+</div>","key_press":null,"test_part":"fixation","trial_type":"html-keyboard-response","trial_index":380,"time_elapsed":803072,"internal_node_id":"0.0-5.0-0.8"},{"rt":813.4549995884299,"correct":true,"stimulus":"stimulus/A1.jpg","key_press":65,"total":"exp","test_part":"test_prototype","correct_response":"A","trial_type":"categorize-image","trial_index":381,"time_elapsed":803897,"internal_node_id":"0.0-5.0-1.8"},{"rt":null,"stimulus":"<div style=\"font-size:60px;\">+</div>","key_press":null,"test_part":"fixation","trial_type":"html-keyboard-response","trial_index":382,"time_elapsed":804702,"internal_node_id":"0.0-5.0-0.9"},{"rt":809.9599997512996,"correct":true,"stimulus":"stimulus/B9.jpg","key_press":66,"total":"exp","test_part":"test_unseen","correct_response":"B","trial_type":"categorize-image","trial_index":383,"time_elapsed":805525,"internal_node_id":"0.0-5.0-1.9"},{"rt":null,"stimulus":"<div style=\"font-size:60px;\">+</div>","key_press":null,"test_part":"fixation","trial_type":"html-keyboard-response","trial_index":384,"time_elapsed":806128,"internal_node_id":"0.0-5.0-0.10"},{"rt":994.1650000400841,"correct":false,"stimulus":"stimulus/B12.jpg","key_press":65,"total":"exp","test_part":"test_seen","correct_response":"B","trial_type":"categorize-image","trial_index":385,"time_elapsed":807131,"internal_node_id":"0.0-5.0-1.10"},{"rt":null,"stimulus":"<div style=\"font-size:60px;\">+</div>","key_press":null,"test_part":"fixation","trial_type":"html-keyboard-response","trial_index":386,"time_elapsed":807934,"internal_node_id":"0.0-5.0-0.11"},{"rt":1364.3000000156462,"correct":true,"stimulus":"stimulus/A4.jpg","key_press":65,"total":"exp","test_part":"test_seen","correct_response":"A","trial_type":"categorize-image","trial_index":387,"time_elapsed":809311,"internal_node_id":"0.0-5.0-1.11"},{"rt":null,"stimulus":"<div style=\"font-size:60px;\">+</div>","key_press":null,"test_part":"fixation","trial_type":"html-keyboard-response","trial_index":388,"time_elapsed":810117,"internal_node_id":"0.0-5.0-0.12"},{"rt":786.0900000669062,"correct":true,"stimulus":"stimulus/A2.jpg","key_press":65,"total":"exp","test_part":"test_unseen","correct_response":"A","trial_type":"categorize-image","trial_index":389,"time_elapsed":810912,"internal_node_id":"0.0-5.0-1.12"},{"rt":null,"stimulus":"<div style=\"font-size:60px;\">+</div>","key_press":null,"test_part":"fixation","trial_type":"html-keyboard-response","trial_index":390,"time_elapsed":811516,"internal_node_id":"0.0-5.0-0.13"},{"rt":1413.8949997723103,"correct":true,"stimulus":"stimulus/A4.jpg","key_press":65,"total":"exp","test_part":"test_seen","correct_response":"A","trial_type":"categorize-image","trial_index":391,"time_elapsed":812941,"internal_node_id":"0.0-5.0-1.13"},{"rt":null,"stimulus":"<div style=\"font-size:60px;\">+</div>","key_press":null,"test_part":"fixation","trial_type":"html-keyboard-response","trial_index":392,"time_elapsed":813747,"internal_node_id":"0.0-5.0-0.14"},{"rt":765.7449999824166,"correct":true,"stimulus":"stimulus/B9.jpg","key_press":66,"total":"exp","test_part":"test_unseen","correct_response":"B","trial_type":"categorize-image","trial_index":393,"time_elapsed":814526,"internal_node_id":"0.0-5.0-1.14"},{"rt":null,"stimulus":"<div style=\"font-size:60px;\">+</div>","key_press":null,"test_part":"fixation","trial_type":"html-keyboard-response","trial_index":394,"time_elapsed":815131,"internal_node_id":"0.0-5.0-0.15"},{"rt":794.5749997161329,"correct":true,"stimulus":"stimulus/B8.jpg","key_press":66,"total":"exp","test_part":"test_prototype","correct_response":"B","trial_type":"categorize-image","trial_index":395,"time_elapsed":815940,"internal_node_id":"0.0-5.0-1.15"},{"rt":null,"stimulus":"<div style=\"font-size:60px;\">+</div>","key_press":null,"test_part":"fixation","trial_type":"html-keyboard-response","trial_index":396,"time_elapsed":816542,"internal_node_id":"0.0-5.0-0.16"},{"rt":1000.2500000409782,"correct":true,"stimulus":"stimulus/A1.jpg","key_press":65,"total":"exp","test_part":"test_prototype","correct_response":"A","trial_type":"categorize-image","trial_index":397,"time_elapsed":817556,"internal_node_id":"0.0-5.0-1.16"},{"rt":null,"stimulus":"<div style=\"font-size:60px;\">+</div>","key_press":null,"test_part":"fixation","trial_type":"html-keyboard-response","trial_index":398,"time_elapsed":818358,"internal_node_id":"0.0-5.0-0.17"},{"rt":1157.9299997538328,"correct":true,"stimulus":"stimulus/B12.jpg","key_press":66,"total":"exp","test_part":"test_seen","correct_response":"B","trial_type":"categorize-image","trial_index":399,"time_elapsed":819534,"internal_node_id":"0.0-5.0-1.17"},{"rt":null,"stimulus":"<div style=\"font-size:60px;\">+</div>","key_press":null,"test_part":"fixation","trial_type":"html-keyboard-response","trial_index":400,"time_elapsed":820140,"internal_node_id":"0.0-5.0-0.18"},{"rt":856.7349999211729,"correct":true,"stimulus":"stimulus/B12.jpg","key_press":66,"total":"exp","test_part":"test_seen","correct_response":"B","trial_type":"categorize-image","trial_index":401,"time_elapsed":821010,"internal_node_id":"0.0-5.0-1.18"},{"rt":null,"stimulus":"<div style=\"font-size:60px;\">+</div>","key_press":null,"test_part":"fixation","trial_type":"html-keyboard-response","trial_index":402,"time_elapsed":821614,"internal_node_id":"0.0-5.0-0.19"},{"rt":800.8200000040233,"correct":true,"stimulus":"stimulus/B8.jpg","key_press":66,"total":"exp","test_part":"test_prototype","correct_response":"B","trial_type":"categorize-image","trial_index":403,"time_elapsed":822428,"internal_node_id":"0.0-5.0-1.19"},{"rt":null,"stimulus":"<div style=\"font-size:60px;\">+</div>","key_press":null,"test_part":"fixation","trial_type":"html-keyboard-response","trial_index":404,"time_elapsed":823033,"internal_node_id":"0.0-5.0-0.20"},{"rt":826.6799999400973,"correct":true,"stimulus":"stimulus/B9.jpg","key_press":66,"total":"exp","test_part":"test_unseen","correct_response":"B","trial_type":"categorize-image","trial_index":405,"time_elapsed":823879,"internal_node_id":"0.0-5.0-1.20"},{"rt":null,"stimulus":"<div style=\"font-size:60px;\">+</div>","key_press":null,"test_part":"fixation","trial_type":"html-keyboard-response","trial_index":406,"time_elapsed":824483,"internal_node_id":"0.0-5.0-0.21"},{"rt":824.0749998949468,"correct":true,"stimulus":"stimulus/A4.jpg","key_press":65,"total":"exp","test_part":"test_seen","correct_response":"A","trial_type":"categorize-image","trial_index":407,"time_elapsed":825321,"internal_node_id":"0.0-5.0-1.21"},{"rt":null,"stimulus":"<div style=\"font-size:60px;\">+</div>","key_press":null,"test_part":"fixation","trial_type":"html-keyboard-response","trial_index":408,"time_elapsed":826125,"internal_node_id":"0.0-5.0-0.22"},{"rt":569.8200003243983,"correct":true,"stimulus":"stimulus/A1.jpg","key_press":65,"total":"exp","test_part":"test_prototype","correct_response":"A","trial_type":"categorize-image","trial_index":409,"time_elapsed":826709,"internal_node_id":"0.0-5.0-1.22"},{"rt":null,"stimulus":"<div style=\"font-size:60px;\">+</div>","key_press":null,"test_part":"fixation","trial_type":"html-keyboard-response","trial_index":410,"time_elapsed":827513,"internal_node_id":"0.0-5.0-0.23"},{"rt":884.6100000664592,"correct":true,"stimulus":"stimulus/A2.jpg","key_press":65,"total":"exp","test_part":"test_unseen","correct_response":"A","trial_type":"categorize-image","trial_index":411,"time_elapsed":828406,"internal_node_id":"0.0-5.0-1.23"},{"rt":null,"stimulus":"<div style=\"font-size:60px;\">+</div>","key_press":null,"test_part":"fixation","trial_type":"html-keyboard-response","trial_index":412,"time_elapsed":829010,"internal_node_id":"0.0-5.0-0.24"},{"rt":809.0999997220933,"correct":true,"stimulus":"stimulus/B9.jpg","key_press":66,"total":"exp","test_part":"test_unseen","correct_response":"B","trial_type":"categorize-image","trial_index":413,"time_elapsed":829830,"internal_node_id":"0.0-5.0-1.24"},{"rt":null,"stimulus":"<div style=\"font-size:60px;\">+</div>","key_press":null,"test_part":"fixation","trial_type":"html-keyboard-response","trial_index":414,"time_elapsed":830633,"internal_node_id":"0.0-5.0-0.25"},{"rt":825.480000115931,"correct":true,"stimulus":"stimulus/B12.jpg","key_press":66,"total":"exp","test_part":"test_seen","correct_response":"B","trial_type":"categorize-image","trial_index":415,"time_elapsed":831466,"internal_node_id":"0.0-5.0-1.25"},{"rt":null,"stimulus":"<div style=\"font-size:60px;\">+</div>","key_press":null,"test_part":"fixation","trial_type":"html-keyboard-response","trial_index":416,"time_elapsed":832069,"internal_node_id":"0.0-5.0-0.26"},{"rt":761.2149999476969,"correct":true,"stimulus":"stimulus/B8.jpg","key_press":66,"total":"exp","test_part":"test_prototype","correct_response":"B","trial_type":"categorize-image","trial_index":417,"time_elapsed":832840,"internal_node_id":"0.0-5.0-1.26"},{"rt":null,"stimulus":"<div style=\"font-size:60px;\">+</div>","key_press":null,"test_part":"fixation","trial_type":"html-keyboard-response","trial_index":418,"time_elapsed":833443,"internal_node_id":"0.0-5.0-0.27"},{"rt":785.7099999673665,"correct":true,"stimulus":"stimulus/A2.jpg","key_press":65,"total":"exp","test_part":"test_unseen","correct_response":"A","trial_type":"categorize-image","trial_index":419,"time_elapsed":834236,"internal_node_id":"0.0-5.0-1.27"},{"rt":null,"stimulus":"<div style=\"font-size:60px;\">+</div>","key_press":null,"test_part":"fixation","trial_type":"html-keyboard-response","trial_index":420,"time_elapsed":835039,"internal_node_id":"0.0-5.0-0.28"},{"rt":542.2249999828637,"correct":true,"stimulus":"stimulus/A1.jpg","key_press":65,"total":"exp","test_part":"test_prototype","correct_response":"A","trial_type":"categorize-image","trial_index":421,"time_elapsed":835588,"internal_node_id":"0.0-5.0-1.28"},{"rt":null,"stimulus":"<div style=\"font-size:60px;\">+</div>","key_press":null,"test_part":"fixation","trial_type":"html-keyboard-response","trial_index":422,"time_elapsed":836191,"internal_node_id":"0.0-5.0-0.29"},{"rt":778.9500001817942,"correct":true,"stimulus":"stimulus/A4.jpg","key_press":65,"total":"exp","test_part":"test_seen","correct_response":"A","trial_type":"categorize-image","trial_index":423,"time_elapsed":836982,"internal_node_id":"0.0-5.0-1.29"},{"rt":null,"stimulus":"<div style=\"font-size:60px;\">+</div>","key_press":null,"test_part":"fixation","trial_type":"html-keyboard-response","trial_index":424,"time_elapsed":837587,"internal_node_id":"0.0-5.0-0.30"},{"rt":734.6250000409782,"correct":true,"stimulus":"stimulus/A2.jpg","key_press":65,"total":"exp","test_part":"test_unseen","correct_response":"A","trial_type":"categorize-image","trial_index":425,"time_elapsed":838330,"internal_node_id":"0.0-5.0-1.30"},{"rt":null,"stimulus":"<div style=\"font-size:60px;\">+</div>","key_press":null,"test_part":"fixation","trial_type":"html-keyboard-response","trial_index":426,"time_elapsed":839135,"internal_node_id":"0.0-5.0-0.31"},{"rt":906.5499999560416,"correct":true,"stimulus":"stimulus/B9.jpg","key_press":66,"total":"exp","test_part":"test_unseen","correct_response":"B","trial_