[{"rt":7585.755000007339,"stimulus":"Welcome Shivani. Press any key to continue.","key_press":32,"trial_type":"html-keyboard-response","trial_index":0,"time_elapsed":7745,"internal_node_id":"0.0-0.0"},{"rt":20081.154999963474,"stimulus":"<p>In this experiment, you will see a series of line drawings of bugs which can be classified either as Category A bugs or as Category B bugs.<br> Your job is to look carefully at each bug and decide if it belongs to Category A or Category B.</p> <p>Press “a” on the keyboard if you think it is a Category A bug and “b” if you think it is a Category B bug.<br> At first, the task will seem quite difficult, but with time and practice, you should be able to answer correctly</p><p>Press any key to continue</p>","key_press":32,"trial_type":"html-keyboard-response","trial_index":1,"time_elapsed":27830,"internal_node_id":"0.0-1.0"},{"rt":8666.785000008531,"stimulus":"<p>This is the training phase of the experiment. Feedback will be provided after each trial in this session. The total number of trials in this phase are 180.<br>Press any key to begin.</p>","key_press":32,"trial_type":"html-keyboard-response","trial_index":2,"time_elapsed":36499,"internal_node_id":"0.0-2.0"},{"rt":null,"stimulus":"<div style=\"font-size:60px;\">+</div>","key_press":null,"test_part":"fixation","trial_type":"html-keyboard-response","trial_index":3,"time_elapsed":37306,"internal_node_id":"0.0-3.0-0.0"},{"rt":3550.985000038054,"correct":true,"stimulus":"stimulus/A4.jpg","key_press":65,"total":"exp","test_part":"train","correct_response":"A","trial_type":"categorize-image","trial_index":4,"time_elapsed":42960,"internal_node_id":"0.0-3.0-1.0"},{"rt":null,"stimulus":"<div style=\"font-size:60px;\">+</div>","key_press":null,"test_part":"fixation","trial_type":"html-keyboard-response","trial_index":5,"time_elapsed":43564,"internal_node_id":"0.0-3.0-0.1"},{"rt":3420.319999975618,"correct":true,"stimulus":"stimulus/B9.jpg","key_press":66,"total":"exp","test_part":"test_seen","correct_response":"B","trial_type":"categorize-image","trial_index":6,"time_elapsed":48991,"internal_node_id":"0.0-3.0-1.1"},{"rt":null,"stimulus":"<div style=\"font-size:60px;\">+</div>","key_press":null,"test_part":"fixation","trial_type":"html-keyboard-response","trial_index":7,"time_elapsed":49794,"internal_node_id":"0.0-3.0-0.2"},{"rt":3999.2000000202097,"correct":false,"stimulus":"stimulus/A7.jpg","key_press":66,"total":"exp","test_part":"train","correct_response":"A","trial_type":"categorize-image","trial_index":8,"time_elapsed":55801,"internal_node_id":"0.0-3.0-1.2"},{"rt":null,"stimulus":"<div style=\"font-size:60px;\">+</div>","key_press":null,"test_part":"fixation","trial_type":"html-keyboard-response","trial_index":9,"time_elapsed":56404,"internal_node_id":"0.0-3.0-0.3"},{"rt":3909.3749999883585,"correct":false,"stimulus":"stimulus/B11.jpg","key_press":65,"total":"exp","test_part":"train","correct_response":"B","trial_type":"categorize-image","trial_index":10,"time_elapsed":62318,"internal_node_id":"0.0-3.0-1.3"},{"rt":null,"stimulus":"<div style=\"font-size:60px;\">+</div>","key_press":null,"test_part":"fixation","trial_type":"html-keyboard-response","trial_index":11,"time_elapsed":63121,"internal_node_id":"0.0-3.0-0.4"},{"rt":3078.719999990426,"correct":true,"stimulus":"stimulus/B14.jpg","key_press":66,"total":"exp","test_part":"train","correct_response":"B","trial_type":"categorize-image","trial_index":12,"time_elapsed":68208,"internal_node_id":"0.0-3.0-1.4"},{"rt":null,"stimulus":"<div style=\"font-size:60px;\">+</div>","key_press":null,"test_part":"fixation","trial_type":"html-keyboard-response","trial_index":13,"time_elapsed":69011,"internal_node_id":"0.0-3.0-0.5"},{"rt":2242.6350000314415,"correct":true,"stimulus":"stimulus/A5.jpg","key_press":65,"total":"exp","test_part":"train","correct_response":"A","trial_type":"categorize-image","trial_index":14,"time_elapsed":73283,"internal_node_id":"0.0-3.0-1.5"},{"rt":null,"stimulus":"<div style=\"font-size:60px;\">+</div>","key_press":null,"test_part":"fixation","trial_type":"html-keyboard-response","trial_index":15,"time_elapsed":74087,"internal_node_id":"0.0-3.0-0.6"},{"rt":2609.2899999930523,"correct":true,"stimulus":"stimulus/A3.jpg","key_press":65,"total":"exp","test_part":"test_seen","correct_response":"A","trial_type":"categorize-image","trial_index":16,"time_elapsed":78704,"internal_node_id":"0.0-3.0-1.6"},{"rt":null,"stimulus":"<div style=\"font-size:60px;\">+</div>","key_press":null,"test_part":"fixation","trial_type":"html-keyboard-response","trial_index":17,"time_elapsed":79536,"internal_node_id":"0.0-3.0-0.7"},{"rt":2823.239999997895,"correct":true,"stimulus":"stimulus/B13.jpg","key_press":66,"total":"exp","test_part":"train","correct_response":"B","trial_type":"categorize-image","trial_index":18,"time_elapsed":84381,"internal_node_id":"0.0-3.0-1.7"},{"rt":null,"stimulus":"<div style=\"font-size:60px;\">+</div>","key_press":null,"test_part":"fixation","trial_type":"html-keyboard-response","trial_index":19,"time_elapsed":84989,"internal_node_id":"0.0-3.0-0.8"},{"rt":2953.5650000325404,"correct":false,"stimulus":"stimulus/A2.jpg","key_press":66,"total":"exp","test_part":"train","correct_response":"A","trial_type":"categorize-image","trial_index":20,"time_elapsed":89976,"internal_node_id":"0.0-3.0-1.8"},{"rt":null,"stimulus":"<div style=\"font-size:60px;\">+</div>","key_press":null,"test_part":"fixation","trial_type":"html-keyboard-response","trial_index":21,"time_elapsed":90613,"internal_node_id":"0.0-3.0-0.9"},{"rt":2745.374999998603,"correct":true,"stimulus":"stimulus/B12.jpg","key_press":66,"total":"exp","test_part":"train","correct_response":"B","trial_type":"categorize-image","trial_index":22,"time_elapsed":95368,"internal_node_id":"0.0-3.0-1.9"},{"rt":null,"stimulus":"<div style=\"font-size:60px;\">+</div>","key_press":null,"test_part":"fixation","trial_type":"html-keyboard-response","trial_index":23,"time_elapsed":95973,"internal_node_id":"0.0-3.0-0.10"},{"rt":1835.1249999832362,"correct":true,"stimulus":"stimulus/B12.jpg","key_press":66,"total":"exp","test_part":"train","correct_response":"B","trial_type":"categorize-image","trial_index":24,"time_elapsed":99830,"internal_node_id":"0.0-3.0-1.10"},{"rt":null,"stimulus":"<div style=\"font-size:60px;\">+</div>","key_press":null,"test_part":"fixation","trial_type":"html-keyboard-response","trial_index":25,"time_elapsed":100433,"internal_node_id":"0.0-3.0-0.11"},{"rt":1575.0300000072457,"correct":true,"stimulus":"stimulus/B9.jpg","key_press":66,"total":"exp","test_part":"test_seen","correct_response":"B","trial_type":"categorize-image","trial_index":26,"time_elapsed":104017,"internal_node_id":"0.0-3.0-1.11"},{"rt":null,"stimulus":"<div style=\"font-size:60px;\">+</div>","key_press":null,"test_part":"fixation","trial_type":"html-keyboard-response","trial_index":27,"time_elapsed":104836,"internal_node_id":"0.0-3.0-0.12"},{"rt":1235.4599999962375,"correct":false,"stimulus":"stimulus/B14.jpg","key_press":65,"total":"exp","test_part":"train","correct_response":"B","trial_type":"categorize-image","trial_index":28,"time_elapsed":108079,"internal_node_id":"0.0-3.0-1.12"},{"rt":null,"stimulus":"<div style=\"font-size:60px;\">+</div>","key_press":null,"test_part":"fixation","trial_type":"html-keyboard-response","trial_index":29,"time_elapsed":108683,"internal_node_id":"0.0-3.0-0.13"},{"rt":4016.8350000167266,"correct":false,"stimulus":"stimulus/A2.jpg","key_press":66,"total":"exp","test_part":"train","correct_response":"A","trial_type":"categorize-image","trial_index":30,"time_elapsed":114704,"internal_node_id":"0.0-3.0-1.13"},{"rt":null,"stimulus":"<div style=\"font-size:60px;\">+</div>","key_press":null,"test_part":"fixation","trial_type":"html-keyboard-response","trial_index":31,"time_elapsed":115508,"internal_node_id":"0.0-3.0-0.14"},{"rt":4634.255000040866,"correct":false,"stimulus":"stimulus/A7.jpg","key_press":66,"total":"exp","test_part":"train","correct_response":"A","trial_type":"categorize-image","trial_index":32,"time_elapsed":122151,"internal_node_id":"0.0-3.0-1.14"},{"rt":null,"stimulus":"<div style=\"font-size:60px;\">+</div>","key_press":null,"test_part":"fixation","trial_type":"html-keyboard-response","trial_index":33,"time_elapsed":122755,"internal_node_id":"0.0-3.0-0.15"},{"rt":1644.1499999491498,"correct":false,"stimulus":"stimulus/A3.jpg","key_press":66,"total":"exp","test_part":"test_seen","correct_response":"A","trial_type":"categorize-image","trial_index":34,"time_elapsed":126407,"internal_node_id":"0.0-3.0-1.15"},{"rt":null,"stimulus":"<div style=\"font-size:60px;\">+</div>","key_press":null,"test_part":"fixation","trial_type":"html-keyboard-response","trial_index":35,"time_elapsed":127210,"internal_node_id":"0.0-3.0-0.16"},{"rt":5396.435000002384,"correct":true,"stimulus":"stimulus/B13.jpg","key_press":66,"total":"exp","test_part":"train","correct_response":"B","trial_type":"categorize-image","trial_index":36,"time_elapsed":134613,"internal_node_id":"0.0-3.0-1.16"},{"rt":null,"stimulus":"<div style=\"font-size:60px;\">+</div>","key_press":null,"test_part":"fixation","trial_type":"html-keyboard-response","trial_index":37,"time_elapsed":135415,"internal_node_id":"0.0-3.0-0.17"},{"rt":5707.6949999900535,"correct":true,"stimulus":"stimulus/B11.jpg","key_press":66,"total":"exp","test_part":"train","correct_response":"B","trial_type":"categorize-image","trial_index":38,"time_elapsed":143129,"internal_node_id":"0.0-3.0-1.17"},{"rt":null,"stimulus":"<div style=\"font-size:60px;\">+</div>","key_press":null,"test_part":"fixation","trial_type":"html-keyboard-response","trial_index":39,"time_elapsed":143932,"internal_node_id":"0.0-3.0-0.18"},{"rt":4482.885000004899,"correct":true,"stimulus":"stimulus/A4.jpg","key_press":65,"total":"exp","test_part":"train","correct_response":"A","trial_type":"categorize-image","trial_index":40,"time_elapsed":150424,"internal_node_id":"0.0-3.0-1.18"},{"rt":null,"stimulus":"<div style=\"font-size:60px;\">+</div>","key_press":null,"test_part":"fixation","trial_type":"html-keyboard-response","trial_index":41,"time_elapsed":151026,"internal_node_id":"0.0-3.0-0.19"},{"rt":6870.530000014696,"correct":true,"stimulus":"stimulus/A5.jpg","key_press":65,"total":"exp","test_part":"train","correct_response":"A","trial_type":"categorize-image","trial_index":42,"time_elapsed":159903,"internal_node_id":"0.0-3.0-1.19"},{"rt":null,"stimulus":"<div style=\"font-size:60px;\">+</div>","key_press":null,"test_part":"fixation","trial_type":"html-keyboard-response","trial_index":43,"time_elapsed":160706,"internal_node_id":"0.0-3.0-0.20"},{"rt":7390.305000008084,"correct":true,"stimulus":"stimulus/B14.jpg","key_press":66,"total":"exp","test_part":"train","correct_response":"B","trial_type":"categorize-image","trial_index":44,"time_elapsed":170103,"internal_node_id":"0.0-3.0-1.20"},{"rt":null,"stimulus":"<div style=\"font-size:60px;\">+</div>","key_press":null,"test_part":"fixation","trial_type":"html-keyboard-response","trial_index":45,"time_elapsed":170905,"internal_node_id":"0.0-3.0-0.21"},{"rt":1550.1400000066496,"correct":true,"stimulus":"stimulus/A5.jpg","key_press":65,"total":"exp","test_part":"train","correct_response":"A","trial_type":"categorize-image","trial_index":46,"time_elapsed":174462,"internal_node_id":"0.0-3.0-1.21"},{"rt":null,"stimulus":"<div style=\"font-size:60px;\">+</div>","key_press":null,"test_part":"fixation","trial_type":"html-keyboard-response","trial_index":47,"time_elapsed":175265,"internal_node_id":"0.0-3.0-0.22"},{"rt":2774.619999981951,"correct":false,"stimulus":"stimulus/A7.jpg","key_press":66,"total":"exp","test_part":"train","correct_response":"A","trial_type":"categorize-image","trial_index":48,"time_elapsed":180045,"internal_node_id":"0.0-3.0-1.22"},{"rt":null,"stimulus":"<div style=\"font-size:60px;\">+</div>","key_press":null,"test_part":"fixation","trial_type":"html-keyboard-response","trial_index":49,"time_elapsed":180648,"internal_node_id":"0.0-3.0-0.23"},{"rt":1111.8549999664538,"correct":true,"stimulus":"stimulus/B11.jpg","key_press":66,"total":"exp","test_part":"train","correct_response":"B","trial_type":"categorize-image","trial_index":50,"time_elapsed":183766,"internal_node_id":"0.0-3.0-1.23"},{"rt":null,"stimulus":"<div style=\"font-size:60px;\">+</div>","key_press":null,"test_part":"fixation","trial_type":"html-keyboard-response","trial_index":51,"time_elapsed":184368,"internal_node_id":"0.0-3.0-0.24"},{"rt":2244.1150000086054,"correct":true,"stimulus":"stimulus/B13.jpg","key_press":66,"total":"exp","test_part":"train","correct_response":"B","trial_type":"categorize-image","trial_index":52,"time_elapsed":188622,"internal_node_id":"0.0-3.0-1.24"},{"rt":null,"stimulus":"<div style=\"font-size:60px;\">+</div>","key_press":null,"test_part":"fixation","trial_type":"html-keyboard-response","trial_index":53,"time_elapsed":189225,"internal_node_id":"0.0-3.0-0.25"},{"rt":997.4899999797344,"correct":false,"stimulus":"stimulus/B9.jpg","key_press":65,"total":"exp","test_part":"test_seen","correct_response":"B","trial_type":"categorize-image","trial_index":54,"time_elapsed":192229,"internal_node_id":"0.0-3.0-1.25"},{"rt":null,"stimulus":"<div style=\"font-size:60px;\">+</div>","key_press":null,"test_part":"fixation","trial_type":"html-keyboard-response","trial_index":55,"time_elapsed":192832,"internal_node_id":"0.0-3.0-0.26"},{"rt":2777.624999987893,"correct":true,"stimulus":"stimulus/B12.jpg","key_press":66,"total":"exp","test_part":"train","correct_response":"B","trial_type":"categorize-image","trial_index":56,"time_elapsed":197618,"internal_node_id":"0.0-3.0-1.26"},{"rt":null,"stimulus":"<div style=\"font-size:60px;\">+</div>","key_press":null,"test_part":"fixation","trial_type":"html-keyboard-response","trial_index":57,"time_elapsed":198221,"internal_node_id":"0.0-3.0-0.27"},{"rt":3168.420000001788,"correct":true,"stimulus":"stimulus/A4.jpg","key_press":65,"total":"exp","test_part":"train","correct_response":"A","trial_type":"categorize-image","trial_index":58,"time_elapsed":203400,"internal_node_id":"0.0-3.0-1.27"},{"rt":null,"stimulus":"<div style=\"font-size:60px;\">+</div>","key_press":null,"test_part":"fixation","trial_type":"html-keyboard-response","trial_index":59,"time_elapsed":204004,"internal_node_id":"0.0-3.0-0.28"},{"rt":2771.3050000020303,"correct":false,"stimulus":"stimulus/A3.jpg","key_press":66,"total":"exp","test_part":"test_seen","correct_response":"A","trial_type":"categorize-image","trial_index":60,"time_elapsed":208782,"internal_node_id":"0.0-3.0-1.28"},{"rt":null,"stimulus":"<div style=\"font-size:60px;\">+</div>","key_press":null,"test_part":"fixation","trial_type":"html-keyboard-response","trial_index":61,"time_elapsed":209384,"internal_node_id":"0.0-3.0-0.29"},{"rt":1143.6499999836087,"correct":true,"stimulus":"stimulus/A2.jpg","key_press":65,"total":"exp","test_part":"train","correct_response":"A","trial_type":"categorize-image","trial_index":62,"time_elapsed":212548,"internal_node_id":"0.0-3.0-1.29"},{"rt":null,"stimulus":"<div style=\"font-size:60px;\">+</div>","key_press":null,"test_part":"fixation","trial_type":"html-keyboard-response","trial_index":63,"time_elapsed":213351,"internal_node_id":"0.0-3.0-0.30"},{"rt":1293.7500000116415,"correct":true,"stimulus":"stimulus/B12.jpg","key_press":66,"total":"exp","test_part":"train","correct_response":"B","trial_type":"categorize-image","trial_index":64,"time_elapsed":216653,"internal_node_id":"0.0-3.0-1.30"},{"rt":null,"stimulus":"<div style=\"font-size:60px;\">+</div>","key_press":null,"test_part":"fixation","trial_type":"html-keyboard-response","trial_index":65,"time_elapsed":217256,"internal_node_id":"0.0-3.0-0.31"},{"rt":1463.8449999620207,"correct":true,"stimulus":"stimulus/A3.jpg","key_press":65,"total":"exp","test_part":"test_seen","correct_response":"A","trial_type":"categorize-image","trial_index":66,"time_elapsed":220726,"internal_node_id":"0.0-3.0-1.31"},{"rt":null,"stimulus":"<div style=\"font-size:60px;\">+</div>","key_press":null,"test_part":"fixation","trial_type":"html-keyboard-response","trial_index":67,"time_elapsed":221328,"internal_node_id":"0.0-3.0-0.32"},{"rt":2166.4250000030734,"correct":true,"stimulus":"stimulus/A4.jpg","key_press":65,"total":"exp","test_part":"train","correct_response":"A","trial_type":"categorize-image","trial_index":68,"time_elapsed":225502,"internal_node_id":"0.0-3.0-1.32"},{"rt":null,"stimulus":"<div style=\"font-size:60px;\">+</div>","key_press":null,"test_part":"fixation","trial_type":"html-keyboard-response","trial_index":69,"time_elapsed":226109,"internal_node_id":"0.0-3.0-0.33"},{"rt":1168.695000000298,"correct":true,"stimulus":"stimulus/B11.jpg","key_press":66,"total":"exp","test_part":"train","correct_response":"B","trial_type":"categorize-image","trial_index":70,"time_elapsed":229286,"internal_node_id":"0.0-3.0-1.33"},{"rt":null,"stimulus":"<div style=\"font-size:60px;\">+</div>","key_press":null,"test_part":"fixation","trial_type":"html-keyboard-response","trial_index":71,"time_elapsed":229888,"internal_node_id":"0.0-3.0-0.34"},{"rt":1807.2249999968335,"correct":true,"stimulus":"stimulus/A7.jpg","key_press":65,"total":"exp","test_part":"train","correct_response":"A","trial_type":"categorize-image","trial_index":72,"time_elapsed":233701,"internal_node_id":"0.0-3.0-1.34"},{"rt":null,"stimulus":"<div style=\"font-size:60px;\">+</div>","key_press":null,"test_part":"fixation","trial_type":"html-keyboard-response","trial_index":73,"time_elapsed":234305,"internal_node_id":"0.0-3.0-0.35"},{"rt":1203.6949999746867,"correct":true,"stimulus":"stimulus/B13.jpg","key_press":66,"total":"exp","test_part":"train","correct_response":"B","trial_type":"categorize-image","trial_index":74,"time_elapsed":237516,"internal_node_id":"0.0-3.0-1.35"},{"rt":null,"stimulus":"<div style=\"font-size:60px;\">+</div>","key_press":null,"test_part":"fixation","trial_type":"html-keyboard-response","trial_index":75,"time_elapsed":238117,"internal_node_id":"0.0-3.0-0.36"},{"rt":1609.8149999743327,"correct":true,"stimulus":"stimulus/A2.jpg","key_press":65,"total":"exp","test_part":"train","correct_response":"A","trial_type":"categorize-image","trial_index":76,"time_elapsed":241736,"internal_node_id":"0.0-3.0-1.36"},{"rt":null,"stimulus":"<div style=\"font-size:60px;\">+</div>","key_press":null,"test_part":"fixation","trial_type":"html-keyboard-response","trial_index":77,"time_elapsed":242338,"internal_node_id":"0.0-3.0-0.37"},{"rt":2582.430000009481,"correct":true,"stimulus":"stimulus/A5.jpg","key_press":65,"total":"exp","test_part":"train","correct_response":"A","trial_type":"categorize-image","trial_index":78,"time_elapsed":246927,"internal_node_id":"0.0-3.0-1.37"},{"rt":null,"stimulus":"<div style=\"font-size:60px;\">+</div>","key_press":null,"test_part":"fixation","trial_type":"html-keyboard-response","trial_index":79,"time_elapsed":247530,"internal_node_id":"0.0-3.0-0.38"},{"rt":1787.6600000308827,"correct":true,"stimulus":"stimulus/B14.jpg","key_press":66,"total":"exp","test_part":"train","correct_response":"B","trial_type":"categorize-image","trial_index":80,"time_elapsed":251324,"internal_node_id":"0.0-3.0-1.38"},{"rt":null,"stimulus":"<div style=\"font-size:60px;\">+</div>","key_press":null,"test_part":"fixation","trial_type":"html-keyboard-response","trial_index":81,"time_elapsed":252126,"internal_node_id":"0.0-3.0-0.39"},{"rt":2031.1649999930523,"correct":false,"stimulus":"stimulus/B9.jpg","key_press":65,"total":"exp","test_part":"test_seen","correct_response":"B","trial_type":"categorize-image","trial_index":82,"time_elapsed":256165,"internal_node_id":"0.0-3.0-1.39"},{"rt":null,"stimulus":"<div style=\"font-size:60px;\">+</div>","key_press":null,"test_part":"fixation","trial_type":"html-keyboard-response","trial_index":83,"time_elapsed":256767,"internal_node_id":"0.0-3.0-0.40"},{"rt":1561.1400000052527,"correct":true,"stimulus":"stimulus/B14.jpg","key_press":66,"total":"exp","test_part":"train","correct_response":"B","trial_type":"categorize-image","trial_index":84,"time_elapsed":260335,"internal_node_id":"0.0-3.0-1.40"},{"rt":null,"stimulus":"<div style=\"font-size:60px;\">+</div>","key_press":null,"test_part":"fixation","trial_type":"html-keyboard-response","trial_index":85,"time_elapsed":260937,"internal_node_id":"0.0-3.0-0.41"},{"rt":1437.5250000157394,"correct":true,"stimulus":"stimulus/A2.jpg","key_press":65,"total":"exp","test_part":"train","correct_response":"A","trial_type":"categorize-image","trial_index":86,"time_elapsed":264381,"internal_node_id":"0.0-3.0-1.41"},{"rt":null,"stimulus":"<div style=\"font-size:60px;\">+</div>","key_press":null,"test_part":"fixation","trial_type":"html-keyboard-response","trial_index":87,"time_elapsed":264985,"internal_node_id":"0.0-3.0-0.42"},{"rt":1279.3500000261702,"correct":false,"stimulus":"stimulus/B12.jpg","key_press":65,"total":"exp","test_part":"train","correct_response":"B","trial_type":"categorize-image","trial_index":88,"time_elapsed":268269,"internal_node_id":"0.0-3.0-1.42"},{"rt":null,"stimulus":"<div style=\"font-size:60px;\">+</div>","key_press":null,"test_part":"fixation","trial_type":"html-keyboard-response","trial_index":89,"time_elapsed":269071,"internal_node_id":"0.0-3.0-0.43"},{"rt":2232.724999950733,"correct":true,"stimulus":"stimulus/A5.jpg","key_press":65,"total":"exp","test_part":"train","correct_response":"A","trial_type":"categorize-image","trial_index":90,"time_elapsed":273310,"internal_node_id":"0.0-3.0-1.43"},{"rt":null,"stimulus":"<div style=\"font-size:60px;\">+</div>","key_press":null,"test_part":"fixation","trial_type":"html-keyboard-response","trial_index":91,"time_elapsed":274112,"internal_node_id":"0.0-3.0-0.44"},{"rt":1383.075000019744,"correct":false,"stimulus":"stimulus/A4.jpg","key_press":66,"total":"exp","test_part":"train","correct_response":"A","trial_type":"categorize-image","trial_index":92,"time_elapsed":277501,"internal_node_id":"0.0-3.0-1.44"},{"rt":null,"stimulus":"<div style=\"font-size:60px;\">+</div>","key_press":null,"test_part":"fixation","trial_type":"html-keyboard-response","trial_index":93,"time_elapsed":278103,"internal_node_id":"0.0-3.0-0.45"},{"rt":3095.674999989569,"correct":false,"stimulus":"stimulus/A3.jpg","key_press":66,"total":"exp","test_part":"test_seen","correct_response":"A","trial_type":"categorize-image","trial_index":94,"time_elapsed":283205,"internal_node_id":"0.0-3.0-1.45"},{"rt":null,"stimulus":"<div style=\"font-size:60px;\">+</div>","key_press":null,"test_part":"fixation","trial_type":"html-keyboard-response","trial_index":95,"time_elapsed":283807,"internal_node_id":"0.0-3.0-0.46"},{"rt":2265.8599999849685,"correct":true,"stimulus":"stimulus/B11.jpg","key_press":66,"total":"exp","test_part":"train","correct_response":"B","trial_type":"categorize-image","trial_index":96,"time_elapsed":288079,"internal_node_id":"0.0-3.0-1.46"},{"rt":null,"stimulus":"<div style=\"font-size:60px;\">+</div>","key_press":null,"test_part":"fixation","trial_type":"html-keyboard-response","trial_index":97,"time_elapsed":288682,"internal_node_id":"0.0-3.0-0.47"},{"rt":2573.7049999879673,"correct":false,"stimulus":"stimulus/B9.jpg","key_press":65,"total":"exp","test_part":"test_seen","correct_response":"B","trial_type":"categorize-image","trial_index":98,"time_elapsed":293261,"internal_node_id":"0.0-3.0-1.47"},{"rt":null,"stimulus":"<div style=\"font-size:60px;\">+</div>","key_press":null,"test_part":"fixation","trial_type":"html-keyboard-response","trial_index":99,"time_elapsed":294063,"internal_node_id":"0.0-3.0-0.48"},{"rt":855.4749999893829,"correct":true,"stimulus":"stimulus/B13.jpg","key_press":66,"total":"exp","test_part":"train","correct_response":"B","trial_type":"categorize-image","trial_index":100,"time_elapsed":296926,"internal_node_id":"0.0-3.0-1.48"},{"rt":null,"stimulus":"<div style=\"font-size:60px;\">+</div>","key_press":null,"test_part":"fixation","trial_type":"html-keyboard-response","trial_index":101,"time_elapsed":297529,"internal_node_id":"0.0-3.0-0.49"},{"rt":2374.7999999905005,"correct":true,"stimulus":"stimulus/A7.jpg","key_press":65,"total":"exp","test_part":"train","correct_response":"A","trial_type":"categorize-image","trial_index":102,"time_elapsed":301912,"internal_node_id":"0.0-3.0-1.49"},{"rt":null,"stimulus":"<div style=\"font-size:60px;\">+</div>","key_press":null,"test_part":"fixation","trial_type":"html-keyboard-response","trial_index":103,"time_elapsed":302714,"internal_node_id":"0.0-3.0-0.50"},{"rt":1469.0999999875203,"correct":true,"stimulus":"stimulus/B11.jpg","key_press":66,"total":"exp","test_part":"train","correct_response":"B","trial_type":"categorize-image","trial_index":104,"time_elapsed":306190,"internal_node_id":"0.0-3.0-1.50"},{"rt":null,"stimulus":"<div style=\"font-size:60px;\">+</div>","key_press":null,"test_part":"fixation","trial_type":"html-keyboard-response","trial_index":105,"time_elapsed":306992,"internal_node_id":"0.0-3.0-0.51"},{"rt":5047.705000033602,"correct":true,"stimulus":"stimulus/B12.jpg","key_press":66,"total":"exp","test_part":"train","correct_response":"B","trial_type":"categorize-image","trial_index":106,"time_elapsed":314046,"internal_node_id":"0.0-3.0-1.51"},{"rt":null,"stimulus":"<div style=\"font-size:60px;\">+</div>","key_press":null,"test_part":"fixation","trial_type":"html-keyboard-response","trial_index":107,"time_elapsed":314648,"internal_node_id":"0.0-3.0-0.52"},{"rt":2952.03499996569,"correct":true,"stimulus":"stimulus/B13.jpg","key_press":66,"total":"exp","test_part":"train","correct_response":"B","trial_type":"categorize-image","trial_index":108,"time_elapsed":319608,"internal_node_id":"0.0-3.0-1.52"},{"rt":null,"stimulus":"<div style=\"font-size:60px;\">+</div>","key_press":null,"test_part":"fixation","trial_type":"html-keyboard-response","trial_index":109,"time_elapsed":320210,"internal_node_id":"0.0-3.0-0.53"},{"rt":963.2449999917299,"correct":true,"stimulus":"stimulus/A5.jpg","key_press":65,"total":"exp","test_part":"train","correct_response":"A","trial_type":"categorize-image","trial_index":110,"time_elapsed":323182,"internal_node_id":"0.0-3.0-1.53"},{"rt":null,"stimulus":"<div style=\"font-size:60px;\">+</div>","key_press":null,"test_part":"fixation","trial_type":"html-keyboard-response","trial_index":111,"time_elapsed":323984,"internal_node_id":"0.0-3.0-0.54"},{"rt":1152.1049999864772,"correct":true,"stimulus":"stimulus/A2.jpg","key_press":65,"total":"exp","test_part":"train","correct_response":"A","trial_type":"categorize-image","trial_index":112,"time_elapsed":327142,"internal_node_id":"0.0-3.0-1.54"},{"rt":null,"stimulus":"<div style=\"font-size:60px;\">+</div>","key_press":null,"test_part":"fixation","trial_type":"html-keyboard-response","trial_index":113,"time_elapsed":327945,"internal_node_id":"0.0-3.0-0.55"},{"rt":1894.2650000099093,"correct":false,"stimulus":"stimulus/A4.jpg","key_press":66,"total":"exp","test_part":"train","correct_response":"A","trial_type":"categorize-image","trial_index":114,"time_elapsed":331847,"internal_node_id":"0.0-3.0-1.55"},{"rt":null,"stimulus":"<div style=\"font-size:60px;\">+</div>","key_press":null,"test_part":"fixation","trial_type":"html-keyboard-response","trial_index":115,"time_elapsed":332449,"internal_node_id":"0.0-3.0-0.56"},{"rt":1053.890000039246,"correct":true,"stimulus":"stimulus/A3.jpg","key_press":65,"total":"exp","test_part":"test_seen","correct_response":"A","trial_type":"categorize-image","trial_index":116,"time_elapsed":335509,"internal_node_id":"0.0-3.0-1.56"},{"rt":null,"stimulus":"<div style=\"font-size:60px;\">+</div>","key_press":null,"test_part":"fixation","trial_type":"html-keyboard-response","trial_index":117,"time_elapsed":336311,"internal_node_id":"0.0-3.0-0.57"},{"rt":3273.555000021588,"correct":true,"stimulus":"stimulus/A7.jpg","key_press":65,"total":"exp","test_part":"train","correct_response":"A","trial_type":"categorize-image","trial_index":118,"time_elapsed":341591,"internal_node_id":"0.0-3.0-1.57"},{"rt":null,"stimulus":"<div style=\"font-size:60px;\">+</div>","key_press":null,"test_part":"fixation","trial_type":"html-keyboard-response","trial_index":119,"time_elapsed":342394,"internal_node_id":"0.0-3.0-0.58"},{"rt":1837.1599999954924,"correct":true,"stimulus":"stimulus/B14.jpg","key_press":66,"total":"exp","test_part":"train","correct_response":"B","trial_type":"categorize-image","trial_index":120,"time_elapsed":346237,"internal_node_id":"0.0-3.0-1.58"},{"rt":null,"stimulus":"<div style=\"font-size:60px;\">+</div>","key_press":null,"test_part":"fixation","trial_type":"html-keyboard-response","trial_index":121,"time_elapsed":346838,"internal_node_id":"0.0-3.0-0.59"},{"rt":4169.594999984838,"correct":false,"stimulus":"stimulus/B9.jpg","key_press":65,"total":"exp","test_part":"test_seen","correct_response":"B","trial_type":"categorize-image","trial_index":122,"time_elapsed":353015,"internal_node_id":"0.0-3.0-1.59"},{"rt":null,"stimulus":"<div style=\"font-size:60px;\">+</div>","key_press":null,"test_part":"fixation","trial_type":"html-keyboard-response","trial_index":123,"time_elapsed":353618,"internal_node_id":"0.0-3.0-0.60"},{"rt":1941.0250000073574,"correct":true,"stimulus":"stimulus/A5.jpg","key_press":65,"total":"exp","test_part":"train","correct_response":"A","trial_type":"categorize-image","trial_index":124,"time_elapsed":357565,"internal_node_id":"0.0-3.0-1.60"},{"rt":null,"stimulus":"<div style=\"font-size:60px;\">+</div>","key_press":null,"test_part":"fixation","trial_type":"html-keyboard-response","trial_index":125,"time_elapsed":358167,"internal_node_id":"0.0-3.0-0.61"},{"rt":2030.3100000019185,"correct":true,"stimulus":"stimulus/B11.jpg","key_press":66,"total":"exp","test_part":"train","correct_response":"B","trial_type":"categorize-image","trial_index":126,"time_elapsed":362206,"internal_node_id":"0.0-3.0-1.61"},{"rt":null,"stimulus":"<div style=\"font-size:60px;\">+</div>","key_press":null,"test_part":"fixation","trial_type":"html-keyboard-response","trial_index":127,"time_elapsed":362808,"internal_node_id":"0.0-3.0-0.62"},{"rt":3174.440000031609,"correct":false,"stimulus":"stimulus/B9.jpg","key_press":65,"total":"exp","test_part":"test_seen","correct_response":"B","trial_type":"categorize-image","trial_index":128,"time_elapsed":367990,"internal_node_id":"0.0-3.0-1.62"},{"rt":null,"stimulus":"<div style=\"font-size:60px;\">+</div>","key_press":null,"test_part":"fixation","trial_type":"html-keyboard-response","trial_index":129,"time_elapsed":368792,"internal_node_id":"0.0-3.0-0.63"},{"rt":3263.435000029858,"correct":false,"stimulus":"stimulus/A7.jpg","key_press":66,"total":"exp","test_part":"train","correct_response":"A","trial_type":"categorize-image","trial_index":130,"time_elapsed":374060,"internal_node_id":"0.0-3.0-1.63"},{"rt":null,"stimulus":"<div style=\"font-size:60px;\">+</div>","key_press":null,"test_part":"fixation","trial_type":"html-keyboard-response","trial_index":131,"time_elapsed":374863,"internal_node_id":"0.0-3.0-0.64"},{"rt":759.2599999625236,"correct":true,"stimulus":"stimulus/B12.jpg","key_press":66,"total":"exp","test_part":"train","correct_response":"B","trial_type":"categorize-image","trial_index":132,"time_elapsed":377628,"internal_node_id":"0.0-3.0-1.64"},{"rt":null,"stimulus":"<div style=\"font-size:60px;\">+</div>","key_press":null,"test_part":"fixation","trial_type":"html-keyboard-response","trial_index":133,"time_elapsed":378231,"internal_node_id":"0.0-3.0-0.65"},{"rt":4401.029999949969,"correct":true,"stimulus":"stimulus/B14.jpg","key_press":66,"total":"exp","test_part":"train","correct_response":"B","trial_type":"categorize-image","trial_index":134,"time_elapsed":384638,"internal_node_id":"0.0-3.0-1.65"},{"rt":null,"stimulus":"<div style=\"font-size:60px;\">+</div>","key_press":null,"test_part":"fixation","trial_type":"html-keyboard-response","trial_index":135,"time_elapsed":385241,"internal_node_id":"0.0-3.0-0.66"},{"rt":1629.7899999772198,"correct":true,"stimulus":"stimulus/A2.jpg","key_press":65,"total":"exp","test_part":"train","correct_response":"A","trial_type":"categorize-image","trial_index":136,"time_elapsed":388877,"internal_node_id":"0.0-3.0-1.66"},{"rt":null,"stimulus":"<div style=\"font-size:60px;\">+</div>","key_press":null,"test_part":"fixation","trial_type":"html-keyboard-response","trial_index":137,"time_elapsed":389479,"internal_node_id":"0.0-3.0-0.67"},{"rt":2207.715000025928,"correct":true,"stimulus":"stimulus/A3.jpg","key_press":65,"total":"exp","test_part":"test_seen","correct_response":"A","trial_type":"categorize-image","trial_index":138,"time_elapsed":393693,"internal_node_id":"0.0-3.0-1.67"},{"rt":null,"stimulus":"<div style=\"font-size:60px;\">+</div>","key_press":null,"test_part":"fixation","trial_type":"html-keyboard-response","trial_index":139,"time_elapsed":394495,"internal_node_id":"0.0-3.0-0.68"},{"rt":1288.6150000267662,"correct":true,"stimulus":"stimulus/B13.jpg","key_press":66,"total":"exp","test_part":"train","correct_response":"B","trial_type":"categorize-image","trial_index":140,"time_elapsed":397790,"internal_node_id":"0.0-3.0-1.68"},{"rt":null,"stimulus":"<div style=\"font-size:60px;\">+</div>","key_press":null,"test_part":"fixation","trial_type":"html-keyboard-response","trial_index":141,"time_elapsed":398392,"internal_node_id":"0.0-3.0-0.69"},{"rt":1902.3700000252575,"correct":true,"stimulus":"stimulus/A4.jpg","key_press":65,"total":"exp","test_part":"train","correct_response":"A","trial_type":"categorize-image","trial_index":142,"time_elapsed":402301,"internal_node_id":"0.0-3.0-1.69"},{"rt":null,"stimulus":"<div style=\"font-size:60px;\">+</div>","key_press":null,"test_part":"fixation","trial_type":"html-keyboard-response","trial_index":143,"time_elapsed":402904,"internal_node_id":"0.0-3.0-0.70"},{"rt":1334.8750000004657,"correct":true,"stimulus":"stimulus/B12.jpg","key_press":66,"total":"exp","test_part":"train","correct_response":"B","trial_type":"categorize-image","trial_index":144,"time_elapsed":406244,"internal_node_id":"0.0-3.0-1.70"},{"rt":null,"stimulus":"<div style=\"font-size:60px;\">+</div>","key_press":null,"test_part":"fixation","trial_type":"html-keyboard-response","trial_index":145,"time_elapsed":406846,"internal_node_id":"0.0-3.0-0.71"},{"rt":4451.330000010785,"correct":true,"stimulus":"stimulus/A3.jpg","key_press":65,"total":"exp","test_part":"test_seen","correct_response":"A","trial_type":"categorize-image","trial_index":146,"time_elapsed":413304,"internal_node_id":"0.0-3.0-1.71"},{"rt":null,"stimulus":"<div style=\"font-size:60px;\">+</div>","key_press":null,"test_part":"fixation","trial_type":"html-keyboard-response","trial_index":147,"time_elapsed":413905,"internal_node_id":"0.0-3.0-0.72"},{"rt":1965.7399999559857,"correct":true,"stimulus":"stimulus/A5.jpg","key_press":65,"total":"exp","test_part":"train","correct_response":"A","trial_type":"categorize-image","trial_index":148,"time_elapsed":417877,"internal_node_id":"0.0-3.0-1.72"},{"rt":null,"stimulus":"<div style=\"font-size:60px;\">+</div>","key_press":null,"test_part":"fixation","trial_type":"html-keyboard-response","trial_index":149,"time_elapsed":418679,"internal_node_id":"0.0-3.0-0.73"},{"rt":2007.7000000164844,"correct":true,"stimulus":"stimulus/A4.jpg","key_press":65,"total":"exp","test_part":"train","correct_response":"A","trial_type":"categorize-image","trial_index":150,"time_elapsed":422693,"internal_node_id":"0.0-3.0-1.73"},{"rt":null,"stimulus":"<div style=\"font-size:60px;\">+</div>","key_press":null,"test_part":"fixation","trial_type":"html-keyboard-response","trial_index":151,"time_elapsed":423496,"internal_node_id":"0.0-3.0-0.74"},{"rt":1672.4999999860302,"correct":true,"stimulus":"stimulus/B13.jpg","key_press":66,"total":"exp","test_part":"train","correct_response":"B","trial_type":"categorize-image","trial_index":152,"time_elapsed":427175,"internal_node_id":"0.0-3.0-1.74"},{"rt":null,"stimulus":"<div style=\"font-size:60px;\">+</div>","key_press":null,"test_part":"fixation","trial_type":"html-keyboard-response","trial_index":153,"time_elapsed":427977,"internal_node_id":"0.0-3.0-0.75"},{"rt":1933.9600000530481,"correct":true,"stimulus":"stimulus/A7.jpg","key_press":65,"total":"exp","test_part":"train","correct_response":"A","trial_type":"categorize-image","trial_index":154,"time_elapsed":431917,"internal_node_id":"0.0-3.0-1.75"},{"rt":null,"stimulus":"<div style=\"font-size:60px;\">+</div>","key_press":null,"test_part":"fixation","trial_type":"html-keyboard-response","trial_index":155,"time_elapsed":432719,"internal_node_id":"0.0-3.0-0.76"},{"rt":911.725000012666,"correct":true,"stimulus":"stimulus/B14.jpg","key_press":66,"total":"exp","test_part":"train","correct_response":"B","trial_type":"categorize-image","trial_index":156,"time_elapsed":435636,"internal_node_id":"0.0-3.0-1.76"},{"rt":null,"stimulus":"<div style=\"font-size:60px;\">+</div>","key_press":null,"test_part":"fixation","trial_type":"html-keyboard-response","trial_index":157,"time_elapsed":436438,"internal_node_id":"0.0-3.0-0.77"},{"rt":1346.2949999957345,"correct":true,"stimulus":"stimulus/B11.jpg","key_press":66,"total":"exp","test_part":"train","correct_response":"B","trial_type":"categorize-image","trial_index":158,"time_elapsed":439789,"internal_node_id":"0.0-3.0-1.77"},{"rt":null,"stimulus":"<div style=\"font-size:60px;\">+</div>","key_press":null,"test_part":"fixation","trial_type":"html-keyboard-response","trial_index":159,"time_elapsed":440591,"internal_node_id":"0.0-3.0-0.78"},{"rt":1047.4600000306964,"correct":true,"stimulus":"stimulus/A2.jpg","key_press":65,"total":"exp","test_part":"train","correct_response":"A","trial_type":"categorize-image","trial_index":160,"time_elapsed":443645,"internal_node_id":"0.0-3.0-1.78"},{"rt":null,"stimulus":"<div style=\"font-size:60px;\">+</div>","key_press":null,"test_part":"fixation","trial_type":"html-keyboard-response","trial_index":161,"time_elapsed":444447,"internal_node_id":"0.0-3.0-0.79"},{"rt":1864.3949999823235,"correct":false,"stimulus":"stimulus/B9.jpg","key_press":65,"total":"exp","test_part":"test_seen","correct_response":"B","trial_type":"categorize-image","trial_index":162,"time_elapsed":448316,"internal_node_id":"0.0-3.0-1.79"},{"rt":null,"stimulus":"<div style=\"font-size:60px;\">+</div>","key_press":null,"test_part":"fixation","trial_type":"html-keyboard-response","trial_index":163,"time_elapsed":449119,"internal_node_id":"0.0-3.0-0.80"},{"rt":4041.4250000030734,"correct":true,"stimulus":"stimulus/A7.jpg","key_press":65,"total":"exp","test_part":"train","correct_response":"A","trial_type":"categorize-image","trial_index":164,"time_elapsed":455166,"internal_node_id":"0.0-3.0-1.80"},{"rt":null,"stimulus":"<div style=\"font-size:60px;\">+</div>","key_press":null,"test_part":"fixation","trial_type":"html-keyboard-response","trial_index":165,"time_elapsed":455968,"internal_node_id":"0.0-3.0-0.81"},{"rt":918.7899999669753,"correct":true,"stimulus":"stimulus/B14.jpg","key_press":66,"total":"exp","test_part":"train","correct_response":"B","trial_type":"categorize-image","trial_index":166,"time_elapsed":458894,"internal_node_id":"0.0-3.0-1.81"},{"rt":null,"stimulus":"<div style=\"font-size:60px;\">+</div>","key_press":null,"test_part":"fixation","trial_type":"html-keyboard-response","trial_index":167,"time_elapsed":459496,"internal_node_id":"0.0-3.0-0.82"},{"rt":967.1700000180863,"correct":true,"stimulus":"stimulus/B12.jpg","key_press":66,"total":"exp","test_part":"train","correct_response":"B","trial_type":"categorize-image","trial_index":168,"time_elapsed":462469,"internal_node_id":"0.0-3.0-1.82"},{"rt":null,"stimulus":"<div style=\"font-size:60px;\">+</div>","key_press":null,"test_part":"fixation","trial_type":"html-keyboard-response","trial_index":169,"time_elapsed":463071,"internal_node_id":"0.0-3.0-0.83"},{"rt":1384.699999995064,"correct":true,"stimulus":"stimulus/B11.jpg","key_press":66,"total":"exp","test_part":"train","correct_response":"B","trial_type":"categorize-image","trial_index":170,"time_elapsed":466462,"internal_node_id":"0.0-3.0-1.83"},{"rt":null,"stimulus":"<div style=\"font-size:60px;\">+</div>","key_press":null,"test_part":"fixation","trial_type":"html-keyboard-response","trial_index":171,"time_elapsed":467265,"internal_node_id":"0.0-3.0-0.84"},{"rt":1934.015000006184,"correct":true,"stimulus":"stimulus/A2.jpg","key_press":65,"total":"exp","test_part":"train","correct_response":"A","trial_type":"categorize-image","trial_index":172,"time_elapsed":471205,"internal_node_id":"0.0-3.0-1.84"},{"rt":null,"stimulus":"<div style=\"font-size:60px;\">+</div>","key_press":null,"test_part":"fixation","trial_type":"html-keyboard-response","trial_index":173,"time_elapsed":471807,"internal_node_id":"0.0-3.0-0.85"},{"rt":5577.410000027157,"correct":true,"stimulus":"stimulus/A3.jpg","key_press":65,"total":"exp","test_part":"test_seen","correct_response":"A","trial_type":"categorize-image","trial_index":174,"time_elapsed":479391,"internal_node_id":"0.0-3.0-1.85"},{"rt":null,"stimulus":"<div style=\"font-size:60px;\">+</div>","key_press":null,"test_part":"fixation","trial_type":"html-keyboard-response","trial_index":175,"time_elapsed":479993,"internal_node_id":"0.0-3.0-0.86"},{"rt":3653.98499998264,"correct":true,"stimulus":"stimulus/B13.jpg","key_press":66,"total":"exp","test_part":"train","correct_response":"B","trial_type":"categorize-image","trial_index":176,"time_elapsed":485653,"internal_node_id":"0.0-3.0-1.86"},{"rt":null,"stimulus":"<div style=\"font-size:60px;\">+</div>","key_press":null,"test_part":"fixation","trial_type":"html-keyboard-response","trial_index":177,"time_elapsed":486455,"internal_node_id":"0.0-3.0-0.87"},{"rt":1145.044999953825,"correct":true,"stimulus":"stimulus/A5.jpg","key_press":65,"total":"exp","test_part":"train","correct_response":"A","trial_type":"categorize-image","trial_index":178,"time_elapsed":489607,"internal_node_id":"0.0-3.0-1.87"},{"rt":null,"stimulus":"<div style=\"font-size:60px;\">+</div>","key_press":null,"test_part":"fixation","trial_type":"html-keyboard-response","trial_index":179,"time_elapsed":490209,"internal_node_id":"0.0-3.0-0.88"},{"rt":1325.2249999786727,"correct":false,"stimulus":"stimulus/B9.jpg","key_press":65,"total":"exp","test_part":"test_seen","correct_response":"B","trial_type":"categorize-image","trial_index":180,"time_elapsed":493541,"internal_node_id":"0.0-3.0-1.88"},{"rt":null,"stimulus":"<div style=\"font-size:60px;\">+</div>","key_press":null,"test_part":"fixation","trial_type":"html-keyboard-response","trial_index":181,"time_elapsed":494344,"internal_node_id":"0.0-3.0-0.89"},{"rt":1287.4449999653734,"correct":true,"stimulus":"stimulus/A4.jpg","key_press":65,"total":"exp","test_part":"train","correct_response":"A","trial_type":"categorize-image","trial_index":182,"time_elapsed":497638,"internal_node_id":"0.0-3.0-1.89"},{"rt":null,"stimulus":"<div style=\"font-size:60px;\">+</div>","key_press":null,"test_part":"fixation","trial_type":"html-keyboard-response","trial_index":183,"time_elapsed":498240,"internal_node_id":"0.0-3.0-0.90"},{"rt":1248.8649999722838,"correct":true,"stimulus":"stimulus/B14.jpg","key_press":66,"total":"exp","test_part":"train","correct_response":"B","trial_type":"categorize-image","trial_index":184,"time_elapsed":501495,"internal_node_id":"0.0-3.0-1.90"},{"rt":null,"stimulus":"<div style=\"font-size:60px;\">+</div>","key_press":null,"test_part":"fixation","trial_type":"html-keyboard-response","trial_index":185,"time_elapsed":502097,"internal_node_id":"0.0-3.0-0.91"},{"rt":1685.5849999701604,"correct":false,"stimulus":"stimulus/A2.jpg","key_press":66,"total":"exp","test_part":"train","correct_response":"A","trial_type":"categorize-image","trial_index":186,"time_elapsed":505790,"internal_node_id":"0.0-3.0-1.91"},{"rt":null,"stimulus":"<div style=\"font-size:60px;\">+</div>","key_press":null,"test_part":"fixation","trial_type":"html-keyboard-response","trial_index":187,"time_elapsed":506593,"internal_node_id":"0.0-3.0-0.92"},{"rt":4094.764999987092,"correct":true,"stimulus":"stimulus/B11.jpg","key_press":66,"total":"exp","test_part":"train","correct_response":"B","trial_type":"categorize-image","trial_index":188,"time_elapsed":512694,"internal_node_id":"0.0-3.0-1.92"},{"rt":null,"stimulus":"<div style=\"font-size:60px;\">+</div>","key_press":null,"test_part":"fixation","trial_type":"html-keyboard-response","trial_index":189,"time_elapsed":513497,"internal_node_id":"0.0-3.0-0.93"},{"rt":1630.0049999845214,"correct":true,"stimulus":"stimulus/B12.jpg","key_press":66,"total":"exp","test_part":"train","correct_response":"B","trial_type":"categorize-image","trial_index":190,"time_elapsed":517133,"internal_node_id":"0.0-3.0-1.93"},{"rt":null,"stimulus":"<div style=\"font-size:60px;\">+</div>","key_press":null,"test_part":"fixation","trial_type":"html-keyboard-response","trial_index":191,"time_elapsed":517735,"internal_node_id":"0.0-3.0-0.94"},{"rt":1343.059999984689,"correct":true,"stimulus":"stimulus/B13.jpg","key_press":66,"total":"exp","test_part":"train","correct_response":"B","trial_type":"categorize-image","trial_index":192,"time_elapsed":521086,"internal_node_id":"0.0-3.0-1.94"},{"rt":null,"stimulus":"<div style=\"font-size:60px;\">+</div>","key_press":null,"test_part":"fixation","trial_type":"html-keyboard-response","trial_index":193,"time_elapsed":521889,"internal_node_id":"0.0-3.0-0.95"},{"rt":2358.9999999967404,"correct":true,"stimulus":"stimulus/A4.jpg","key_press":65,"total":"exp","test_part":"train","correct_response":"A","trial_type":"categorize-image","trial_index":194,"time_elapsed":526254,"internal_node_id":"0.0-3.0-1.95"},{"rt":null,"stimulus":"<div style=\"font-size:60px;\">+</div>","key_press":null,"test_part":"fixation","trial_type":"html-keyboard-response","trial_index":195,"time_elapsed":527056,"internal_node_id":"0.0-3.0-0.96"},{"rt":1301.8850000225939,"correct":true,"stimulus":"stimulus/A7.jpg","key_press":65,"total":"exp","test_part":"train","correct_response":"A","trial_type":"categorize-image","trial_index":196,"time_elapsed":530365,"internal_node_id":"0.0-3.0-1.96"},{"rt":null,"stimulus":"<div style=\"font-size:60px;\">+</div>","key_press":null,"test_part":"fixation","trial_type":"html-keyboard-response","trial_index":197,"time_elapsed":531168,"internal_node_id":"0.0-3.0-0.97"},{"rt":1543.2750000036322,"correct":true,"stimulus":"stimulus/A3.jpg","key_press":65,"total":"exp","test_part":"test_seen","correct_response":"A","trial_type":"categorize-image","trial_index":198,"time_elapsed":534720,"internal_node_id":"0.0-3.0-1.97"},{"rt":null,"stimulus":"<div style=\"font-size:60px;\">+</div>","key_press":null,"test_part":"fixation","trial_type":"html-keyboard-response","trial_index":199,"time_elapsed":535327,"internal_node_id":"0.0-3.0-0.98"},{"rt":1342.5500000012107,"correct":true,"stimulus":"stimulus/A5.jpg","key_press":65,"total":"exp","test_part":"train","correct_response":"A","trial_type":"categorize-image","trial_index":200,"time_elapsed":538677,"internal_node_id":"0.0-3.0-1.98"},{"rt":null,"stimulus":"<div style=\"font-size:60px;\">+</div>","key_press":null,"test_part":"fixation","trial_type":"html-keyboard-response","trial_index":201,"time_elapsed":539280,"internal_node_id":"0.0-3.0-0.99"},{"rt":2207.170000008773,"correct":true,"stimulus":"stimulus/B9.jpg","key_press":66,"total":"exp","test_part":"test_seen","correct_response":"B","trial_type":"categorize-image","trial_index":202,"time_elapsed":543493,"internal_node_id":"0.0-3.0-1.99"},{"rt":null,"stimulus":"<div style=\"font-size:60px;\">+</div>","key_press":null,"test_part":"fixation","trial_type":"html-keyboard-response","trial_index":203,"time_elapsed":544095,"internal_node_id":"0.0-3.0-0.100"},{"rt":1511.7700000409968,"correct":true,"stimulus":"stimulus/B12.jpg","key_press":66,"total":"exp","test_part":"train","correct_response":"B","trial_type":"categorize-image","trial_index":204,"time_elapsed":547614,"internal_node_id":"0.0-3.0-1.100"},{"rt":null,"stimulus":"<div style=\"font-size:60px;\">+</div>","key_press":null,"test_part":"fixation","trial_type":"html-keyboard-response","trial_index":205,"time_elapsed":548416,"internal_node_id":"0.0-3.0-0.101"},{"rt":847.4750000168569,"correct":true,"stimulus":"stimulus/A3.jpg","key_press":65,"total":"exp","test_part":"test_seen","correct_response":"A","trial_type":"categorize-image","trial_index":206,"time_elapsed":551270,"internal_node_id":"0.0-3.0-1.101"},{"rt":null,"stimulus":"<div style=\"font-size:60px;\">+</div>","key_press":null,"test_part":"fixation","trial_type":"html-keyboard-response","trial_index":207,"time_elapsed":552072,"internal_node_id":"0.0-3.0-0.102"},{"rt":2558.405000017956,"correct":true,"stimulus":"stimulus/A5.jpg","key_press":65,"total":"exp","test_part":"train","correct_response":"A","trial_type":"categorize-image","trial_index":208,"time_elapsed":556637,"internal_node_id":"0.0-3.0-1.102"},{"rt":null,"stimulus":"<div style=\"font-size:60px;\">+</div>","key_press":null,"test_part":"fixation","trial_type":"html-keyboard-response","trial_index":209,"time_elapsed":557439,"internal_node_id":"0.0-3.0-0.103"},{"rt":1544.594999984838,"correct":false,"stimulus":"stimulus/B9.jpg","key_press":65,"total":"exp","test_part":"test_seen","correct_response":"B","trial_type":"categorize-image","trial_index":210,"time_elapsed":560989,"internal_node_id":"0.0-3.0-1.103"},{"rt":null,"stimulus":"<div style=\"font-size:60px;\">+</div>","key_press":null,"test_part":"fixation","trial_type":"html-keyboard-response","trial_index":211,"time_elapsed":561592,"internal_node_id":"0.0-3.0-0.104"},{"rt":1144.159999967087,"correct":true,"stimulus":"stimulus/A7.jpg","key_press":65,"total":"exp","test_part":"train","correct_response":"A","trial_type":"categorize-image","trial_index":212,"time_elapsed":564743,"internal_node_id":"0.0-3.0-1.104"},{"rt":null,"stimulus":"<div style=\"font-size:60px;\">+</div>","key_press":null,"test_part":"fixation","trial_type":"html-keyboard-response","trial_index":213,"time_elapsed":565344,"internal_node_id":"0.0-3.0-0.105"},{"rt":1511.0250000143424,"correct":true,"stimulus":"stimulus/B14.jpg","key_press":66,"total":"exp","test_part":"train","correct_response":"B","trial_type":"categorize-image","trial_index":214,"time_elapsed":568863,"internal_node_id":"0.0-3.0-1.105"},{"rt":null,"stimulus":"<div style=\"font-size:60px;\">+</div>","key_press":null,"test_part":"fixation","trial_type":"html-keyboard-response","trial_index":215,"time_elapsed":569665,"internal_node_id":"0.0-3.0-0.106"},{"rt":2877.1600000327453,"correct":true,"stimulus":"stimulus/B11.jpg","key_press":66,"total":"exp","test_part":"train","correct_response":"B","trial_type":"categorize-image","trial_index":216,"time_elapsed":574548,"internal_node_id":"0.0-3.0-1.106"},{"rt":null,"stimulus":"<div style=\"font-size:60px;\">+</div>","key_press":null,"test_part":"fixation","trial_type":"html-keyboard-response","trial_index":217,"time_elapsed":575350,"internal_node_id":"0.0-3.0-0.107"},{"rt":1017.6499999943189,"correct":false,"stimulus":"stimulus/B13.jpg","key_press":65,"total":"exp","test_part":"train","correct_response":"B","trial_type":"categorize-image","trial_index":218,"time_elapsed":578374,"internal_node_id":"0.0-3.0-1.107"},{"rt":null,"stimulus":"<div style=\"font-size:60px;\">+</div>","key_press":null,"test_part":"fixation","trial_type":"html-keyboard-response","trial_index":219,"time_elapsed":579176,"internal_node_id":"0.0-3.0-0.108"},{"rt":1783.5099999792874,"correct":true,"stimulus":"stimulus/A2.jpg","key_press":65,"total":"exp","test_part":"train","correct_response":"A","trial_type":"categorize-image","trial_index":220,"time_elapsed":582965,"internal_node_id":"0.0-3.0-1.108"},{"rt":null,"stimulus":"<div style=\"font-size:60px;\">+</div>","key_press":null,"test_part":"fixation","trial_type":"html-keyboard-response","trial_index":221,"time_elapsed":583767,"internal_node_id":"0.0-3.0-0.109"},{"rt":2111.7599999997765,"correct":false,"stimulus":"stimulus/A4.jpg","key_press":66,"total":"exp","test_part":"train","correct_response":"A","trial_type":"categorize-image","trial_index":222,"time_elapsed":587885,"internal_node_id":"0.0-3.0-1.109"},{"rt":null,"stimulus":"<div style=\"font-size:60px;\">+</div>","key_press":null,"test_part":"fixation","trial_type":"html-keyboard-response","trial_index":223,"time_elapsed":588487,"internal_node_id":"0.0-3.0-0.110"},{"rt":1754.0250000311062,"correct":true,"stimulus":"stimulus/A4.jpg","key_press":65,"total":"exp","test_part":"train","correct_response":"A","trial_type":"categorize-image","trial_index":224,"time_elapsed":592247,"internal_node_id":"0.0-3.0-1.110"},{"rt":null,"stimulus":"<div style=\"font-size:60px;\">+</div>","key_press":null,"test_part":"fixation","trial_type":"html-keyboard-response","trial_index":225,"time_elapsed":593048,"internal_node_id":"0.0-3.0-0.111"},{"rt":1526.389999955427,"correct":true,"stimulus":"stimulus/B14.jpg","key_press":66,"total":"exp","test_part":"train","correct_response":"B","trial_type":"categorize-image","trial_index":226,"time_elapsed":596581,"internal_node_id":"0.0-3.0-1.111"},{"rt":null,"stimulus":"<div style=\"font-size:60px;\">+</div>","key_press":null,"test_part":"fixation","trial_type":"html-keyboard-response","trial_index":227,"time_elapsed":597383,"internal_node_id":"0.0-3.0-0.112"},{"rt":1688.2650000043213,"correct":true,"stimulus":"stimulus/A7.jpg","key_press":65,"total":"exp","test_part":"train","correct_response":"A","trial_type":"categorize-image","trial_index":228,"time_elapsed":601076,"internal_node_id":"0.0-3.0-1.112"},{"rt":null,"stimulus":"<div style=\"font-size:60px;\">+</div>","key_press":null,"test_part":"fixation","trial_type":"html-keyboard-response","trial_index":229,"time_elapsed":601879,"internal_node_id":"0.0-3.0-0.113"},{"rt":2264.7149999975227,"correct":true,"stimulus":"stimulus/B9.jpg","key_press":66,"total":"exp","test_part":"test_seen","correct_response":"B","trial_type":"categorize-image","trial_index":230,"time_elapsed":606149,"internal_node_id":"0.0-3.0-1.113"},{"rt":null,"stimulus":"<div style=\"font-size:60px;\">+</div>","key_press":null,"test_part":"fixation","trial_type":"html-keyboard-response","trial_index":231,"time_elapsed":606751,"internal_node_id":"0.0-3.0-0.114"},{"rt":2192.154999997001,"correct":true,"stimulus":"stimulus/A2.jpg","key_press":65,"total":"exp","test_part":"train","correct_response":"A","trial_type":"categorize-image","trial_index":232,"time_elapsed":610948,"internal_node_id":"0.0-3.0-1.114"},{"rt":null,"stimulus":"<div style=\"font-size:60px;\">+</div>","key_press":null,"test_part":"fixation","trial_type":"html-keyboard-response","trial_index":233,"time_elapsed":611550,"internal_node_id":"0.0-3.0-0.115"},{"rt":3793.4649999951944,"correct":true,"stimulus":"stimulus/A5.jpg","key_press":65,"total":"exp","test_part":"train","correct_response":"A","trial_type":"categorize-image","trial_index":234,"time_elapsed":617350,"internal_node_id":"0.0-3.0-1.115"},{"rt":null,"stimulus":"<div style=\"font-size:60px;\">+</div>","key_press":null,"test_part":"fixation","trial_type":"html-keyboard-response","trial_index":235,"time_elapsed":618153,"internal_node_id":"0.0-3.0-0.116"},{"rt":1718.1299999938346,"correct":true,"stimulus":"stimulus/B11.jpg","key_press":66,"total":"exp","test_part":"train","correct_response":"B","trial_type":"categorize-image","trial_index":236,"time_elapsed":621878,"internal_node_id":"0.0-3.0-1.116"},{"rt":null,"stimulus":"<div style=\"font-size:60px;\">+</div>","key_press":null,"test_part":"fixation","trial_type":"html-keyboard-response","trial_index":237,"time_elapsed":622479,"internal_node_id":"0.0-3.0-0.117"},{"rt":2031.2600000179373,"correct":true,"stimulus":"stimulus/B12.jpg","key_press":66,"total":"exp","test_part":"train","correct_response":"B","trial_type":"categorize-image","trial_index":238,"time_elapsed":626517,"internal_node_id":"0.0-3.0-1.117"},{"rt":null,"stimulus":"<div style=\"font-size:60px;\">+</div>","key_press":null,"test_part":"fixation","trial_type":"html-keyboard-response","trial_index":239,"time_elapsed":627120,"internal_node_id":"0.0-3.0-0.118"},{"rt":1487.7700000070035,"correct":true,"stimulus":"stimulus/A3.jpg","key_press":65,"total":"exp","test_part":"test_seen","correct_response":"A","trial_type":"categorize-image","trial_index":240,"time_elapsed":630613,"internal_node_id":"0.0-3.0-1.118"},{"rt":null,"stimulus":"<div style=\"font-size:60px;\">+</div>","key_press":null,"test_part":"fixation","trial_type":"html-keyboard-response","trial_index":241,"time_elapsed":631414,"internal_node_id":"0.0-3.0-0.119"},{"rt":2744.2450000089593,"correct":true,"stimulus":"stimulus/B13.jpg","key_press":66,"total":"exp","test_part":"train","correct_response":"B","trial_type":"categorize-image","trial_index":242,"time_elapsed":636165,"internal_node_id":"0.0-3.0-1.119"},{"rt":null,"stimulus":"<div style=\"font-size:60px;\">+</div>","key_press":null,"test_part":"fixation","trial_type":"html-keyboard-response","trial_index":243,"time_elapsed":636967,"internal_node_id":"0.0-3.0-0.120"},{"rt":1777.2700000205077,"correct":true,"stimulus":"stimulus/A4.jpg","key_press":65,"total":"exp","test_part":"train","correct_response":"A","trial_type":"categorize-image","trial_index":244,"time_elapsed":640750,"internal_node_id":"0.0-3.0-1.120"},{"rt":null,"stimulus":"<div style=\"font-size:60px;\">+</div>","key_press":null,"test_part":"fixation","trial_type":"html-keyboard-response","trial_index":245,"time_elapsed":641354,"internal_node_id":"0.0-3.0-0.121"},{"rt":1677.0649999962188,"correct":true,"stimulus":"stimulus/B12.jpg","key_press":66,"total":"exp","test_part":"train","correct_response":"B","trial_type":"categorize-image","trial_index":246,"time_elapsed":645037,"internal_node_id":"0.0-3.0-1.121"},{"rt":null,"stimulus":"<div style=\"font-size:60px;\">+</div>","key_press":null,"test_part":"fixation","trial_type":"html-keyboard-response","trial_index":247,"time_elapsed":645839,"internal_node_id":"0.0-3.0-0.122"},{"rt":2937.0599999674596,"correct":true,"stimulus":"stimulus/A7.jpg","key_press":65,"total":"exp","test_part":"train","correct_response":"A","trial_type":"categorize-image","trial_index":248,"time_elapsed":650782,"internal_node_id":"0.0-3.0-1.122"},{"rt":null,"stimulus":"<div style=\"font-size:60px;\">+</div>","key_press":null,"test_part":"fixation","trial_type":"html-keyboard-response","trial_index":249,"time_elapsed":651584,"internal_node_id":"0.0-3.0-0.123"},{"rt":9103.309999976773,"correct":true,"stimulus":"stimulus/A5.jpg","key_press":65,"total":"exp","test_part":"train","correct_response":"A","trial_type":"categorize-image","trial_index":250,"time_elapsed":662694,"internal_node_id":"0.0-3.0-1.123"},{"rt":null,"stimulus":"<div style=\"font-size:60px;\">+</div>","key_press":null,"test_part":"fixation","trial_type":"html-keyboard-response","trial_index":251,"time_elapsed":663295,"internal_node_id":"0.0-3.0-0.124"},{"rt":855.9499999973923,"correct":true,"stimulus":"stimulus/B14.jpg","key_press":66,"total":"exp","test_part":"train","correct_response":"B","trial_type":"categorize-image","trial_index":252,"time_elapsed":666157,"internal_node_id":"0.0-3.0-1.124"},{"rt":null,"stimulus":"<div style=\"font-size:60px;\">+</div>","key_press":null,"test_part":"fixation","trial_type":"html-keyboard-response","trial_index":253,"time_elapsed":666759,"internal_node_id":"0.0-3.0-0.125"},{"rt":2125.739999988582,"correct":false,"stimulus":"stimulus/B9.jpg","key_press":65,"total":"exp","test_part":"test_seen","correct_response":"B","trial_type":"categorize-image","trial_index":254,"time_elapsed":670892,"internal_node_id":"0.0-3.0-1.125"},{"rt":null,"stimulus":"<div style=\"font-size:60px;\">+</div>","key_press":null,"test_part":"fixation","trial_type":"html-keyboard-response","trial_index":255,"time_elapsed":671695,"internal_node_id":"0.0-3.0-0.126"},{"rt":1736.6699999547563,"correct":false,"stimulus":"stimulus/B13.jpg","key_press":65,"total":"exp","test_part":"train","correct_response":"B","trial_type":"categorize-image","trial_index":256,"time_elapsed":675437,"internal_node_id":"0.0-3.0-1.126"},{"rt":null,"stimulus":"<div style=\"font-size:60px;\">+</div>","key_press":null,"test_part":"fixation","trial_type":"html-keyboard-response","trial_index":257,"time_elapsed":676040,"internal_node_id":"0.0-3.0-0.127"},{"rt":2783.594999986235,"correct":true,"stimulus":"stimulus/A2.jpg","key_press":65,"total":"exp","test_part":"train","correct_response":"A","trial_type":"categorize-image","trial_index":258,"time_elapsed":680830,"internal_node_id":"0.0-3.0-1.127"},{"rt":null,"stimulus":"<div style=\"font-size:60px;\">+</div>","key_press":null,"test_part":"fixation","trial_type":"html-keyboard-response","trial_index":259,"time_elapsed":681633,"internal_node_id":"0.0-3.0-0.128"},{"rt":4183.205000008456,"correct":true,"stimulus":"stimulus/B11.jpg","key_press":66,"total":"exp","test_part":"train","correct_response":"B","trial_type":"categorize-image","trial_index":260,"time_elapsed":687822,"internal_node_id":"0.0-3.0-1.128"},{"rt":null,"stimulus":"<div style=\"font-size:60px;\">+</div>","key_press":null,"test_part":"fixation","trial_type":"html-keyboard-response","trial_index":261,"time_elapsed":688625,"internal_node_id":"0.0-3.0-0.129"},{"rt":1398.2550000073388,"correct":true,"stimulus":"stimulus/A3.jpg","key_press":65,"total":"exp","test_part":"test_seen","correct_response":"A","trial_type":"categorize-image","trial_index":262,"time_elapsed":692029,"internal_node_id":"0.0-3.0-1.129"},{"rt":null,"stimulus":"<div style=\"font-size:60px;\">+</div>","key_press":null,"test_part":"fixation","trial_type":"html-keyboard-response","trial_index":263,"time_elapsed":692631,"internal_node_id":"0.0-3.0-0.130"},{"rt":2735.4599999962375,"correct":true,"stimulus":"stimulus/B11.jpg","key_press":66,"total":"exp","test_part":"train","correct_response":"B","trial_type":"categorize-image","trial_index":264,"time_elapsed":697373,"internal_node_id":"0.0-3.0-1.130"},{"rt":null,"stimulus":"<div style=\"font-size:60px;\">+</div>","key_press":null,"test_part":"fixation","trial_type":"html-keyboard-response","trial_index":265,"time_elapsed":697976,"internal_node_id":"0.0-3.0-0.131"},{"rt":3663.1100000231527,"correct":true,"stimulus":"stimulus/B9.jpg","key_press":66,"total":"exp","test_part":"test_seen","correct_response":"B","trial_type":"categorize-image","trial_index":266,"time_elapsed":703646,"internal_node_id":"0.0-3.0-1.131"},{"rt":null,"stimulus":"<div style=\"font-size:60px;\">+</div>","key_press":null,"test_part":"fixation","trial_type":"html-keyboard-response","trial_index":267,"time_elapsed":704448,"internal_node_id":"0.0-3.0-0.132"},{"rt":1278.7249999819323,"correct":true,"stimulus":"stimulus/A3.jpg","key_press":65,"total":"exp","test_part":"test_seen","correct_response":"A","trial_type":"categorize-image","trial_index":268,"time_elapsed":707732,"internal_node_id":"0.0-3.0-1.132"},{"rt":null,"stimulus":"<div style=\"font-size:60px;\">+</div>","key_press":null,"test_part":"fixation","trial_type":"html-keyboard-response","trial_index":269,"time_elapsed":708335,"internal_node_id":"0.0-3.0-0.133"},{"rt":1439.1649999888614,"correct":true,"stimulus":"stimulus/A2.jpg","key_press":65,"total":"exp","test_part":"train","correct_response":"A","trial_type":"categorize-image","trial_index":270,"time_elapsed":711781,"internal_node_id":"0.0-3.0-1.133"},{"rt":null,"stimulus":"<div style=\"font-size:60px;\">+</div>","key_press":null,"test_part":"fixation","trial_type":"html-keyboard-response","trial_index":271,"time_elapsed":712384,"internal_node_id":"0.0-3.0-0.134"},{"rt":1752.0299999741837,"correct":true,"stimulus":"stimulus/A7.jpg","key_press":65,"total":"exp","test_part":"train","correct_response":"A","trial_type":"categorize-image","trial_index":272,"time_elapsed":716142,"internal_node_id":"0.0-3.0-1.134"},{"rt":null,"stimulus":"<div style=\"font-size:60px;\">+</div>","key_press":null,"test_part":"fixation","trial_type":"html-keyboard-response","trial_index":273,"time_elapsed":716943,"internal_node_id":"0.0-3.0-0.135"},{"rt":6806.809999980032,"correct":true,"stimulus":"stimulus/B13.jpg","key_press":66,"total":"exp","test_part":"train","correct_response":"B","trial_type":"categorize-image","trial_index":274,"time_elapsed":725757,"internal_node_id":"0.0-3.0-1.135"},{"rt":null,"stimulus":"<div style=\"font-size:60px;\">+</div>","key_press":null,"test_part":"fixation","trial_type":"html-keyboard-response","trial_index":275,"time_elapsed":726360,"internal_node_id":"0.0-3.0-0.136"},{"rt":1664.1550000058487,"correct":true,"stimulus":"stimulus/B14.jpg","key_press":66,"total":"exp","test_part":"train","correct_response":"B","trial_type":"categorize-image","trial_index":276,"time_elapsed":730030,"internal_node_id":"0.0-3.0-1.136"},{"rt":null,"stimulus":"<div style=\"font-size:60px;\">+</div>","key_press":null,"test_part":"fixation","trial_type":"html-keyboard-response","trial_index":277,"time_elapsed":730833,"internal_node_id":"0.0-3.0-0.137"},{"rt":2197.9649999993853,"correct":true,"stimulus":"stimulus/A5.jpg","key_press":65,"total":"exp","test_part":"train","correct_response":"A","trial_type":"categorize-image","trial_index":278,"time_elapsed":735036,"internal_node_id":"0.0-3.0-1.137"},{"rt":null,"stimulus":"<div style=\"font-size:60px;\">+</div>","key_press":null,"test_part":"fixation","trial_type":"html-keyboard-response","trial_index":279,"time_elapsed":735641,"internal_node_id":"0.0-3.0-0.138"},{"rt":5470.114999974612,"correct":true,"stimulus":"stimulus/A4.jpg","key_press":65,"total":"exp","test_part":"train","correct_response":"A","trial_type":"categorize-image","trial_index":280,"time_elapsed":743118,"internal_node_id":"0.0-3.0-1.138"},{"rt":null,"stimulus":"<div style=\"font-size:60px;\">+</div>","key_press":null,"test_part":"fixation","trial_type":"html-keyboard-response","trial_index":281,"time_elapsed":743720,"internal_node_id":"0.0-3.0-0.139"},{"rt":1590.680000022985,"correct":true,"stimulus":"stimulus/B12.jpg","key_press":66,"total":"exp","test_part":"train","correct_response":"B","trial_type":"categorize-image","trial_index":282,"time_elapsed":747317,"internal_node_id":"0.0-3.0-1.139"},{"rt":null,"stimulus":"<div style=\"font-size:60px;\">+</div>","key_press":null,"test_part":"fixation","trial_type":"html-keyboard-response","trial_index":283,"time_elapsed":748119,"internal_node_id":"0.0-3.0-0.140"},{"rt":2831.334999995306,"correct":true,"stimulus":"stimulus/A7.jpg","key_press":65,"total":"exp","test_part":"train","correct_response":"A","trial_type":"categorize-image","trial_index":284,"time_elapsed":752957,"internal_node_id":"0.0-3.0-1.140"},{"rt":null,"stimulus":"<div style=\"font-size:60px;\">+</div>","key_press":null,"test_part":"fixation","trial_type":"html-keyboard-response","trial_index":285,"time_elapsed":753759,"internal_node_id":"0.0-3.0-0.141"},{"rt":4648.040000000037,"correct":true,"stimulus":"stimulus/B9.jpg","key_press":66,"total":"exp","test_part":"test_seen","correct_response":"B","trial_type":"categorize-image","trial_index":286,"time_elapsed":760413,"internal_node_id":"0.0-3.0-1.141"},{"rt":null,"stimulus":"<div style=\"font-size:60px;\">+</div>","key_press":null,"test_part":"fixation","trial_type":"html-keyboard-response","trial_index":287,"time_elapsed":761015,"internal_node_id":"0.0-3.0-0.142"},{"rt":1895.5500000156462,"correct":true,"stimulus":"stimulus/B13.jpg","key_press":66,"total":"exp","test_part":"train","correct_response":"B","trial_type":"categorize-image","trial_index":288,"time_elapsed":764916,"internal_node_id":"0.0-3.0-1.142"},{"rt":null,"stimulus":"<div style=\"font-size:60px;\">+</div>","key_press":null,"test_part":"fixation","trial_type":"html-keyboard-response","trial_index":289,"time_elapsed":765719,"internal_node_id":"0.0-3.0-0.143"},{"rt":3464.559999993071,"correct":true,"stimulus":"stimulus/A4.jpg","key_press":65,"total":"exp","test_part":"train","correct_response":"A","trial_type":"categorize-image","trial_index":290,"time_elapsed":771190,"internal_node_id":"0.0-3.0-1.143"},{"rt":null,"stimulus":"<div style=\"font-size:60px;\">+</div>","key_press":null,"test_part":"fixation","trial_type":"html-keyboard-response","trial_index":291,"time_elapsed":771791,"internal_node_id":"0.0-3.0-0.144"},{"rt":1286.454999994021,"correct":true,"stimulus":"stimulus/B12.jpg","key_press":66,"total":"exp","test_part":"train","correct_response":"B","trial_type":"categorize-image","trial_index":292,"time_elapsed":775085,"internal_node_id":"0.0-3.0-1.144"},{"rt":null,"stimulus":"<div style=\"font-size:60px;\">+</div>","key_press":null,"test_part":"fixation","trial_type":"html-keyboard-response","trial_index":293,"time_elapsed":775686,"internal_node_id":"0.0-3.0-0.145"},{"rt":1927.4449999793433,"correct":true,"stimulus":"stimulus/A2.jpg","key_press":65,"total":"exp","test_part":"train","correct_response":"A","trial_type":"categorize-image","trial_index":294,"time_elapsed":779621,"internal_node_id":"0.0-3.0-1.145"},{"rt":null,"stimulus":"<div style=\"font-size:60px;\">+</div>","key_press":null,"test_part":"fixation","trial_type":"html-keyboard-response","trial_index":295,"time_elapsed":780424,"internal_node_id":"0.0-3.0-0.146"},{"rt":1759.829999995418,"correct":true,"stimulus":"stimulus/B14.jpg","key_press":66,"total":"exp","test_part":"train","correct_response":"B","trial_type":"categorize-image","trial_index":296,"time_elapsed":784190,"internal_node_id":"0.0-3.0-1.146"},{"rt":null,"stimulus":"<div style=\"font-size:60px;\">+</div>","key_press":null,"test_part":"fixation","trial_type":"html-keyboard-response","trial_index":297,"time_elapsed":784992,"internal_node_id":"0.0-3.0-0.147"},{"rt":3462.6700000371784,"correct":false,"stimulus":"stimulus/B11.jpg","key_press":65,"total":"exp","test_part":"train","correct_response":"B","trial_type":"categorize-image","trial_index":298,"time_elapsed":790462,"internal_node_id":"0.0-3.0-1.147"},{"rt":null,"stimulus":"<div style=\"font-size:60px;\">+</div>","key_press":null,"test_part":"fixation","trial_type":"html-keyboard-response","trial_index":299,"time_elapsed":791264,"internal_node_id":"0.0-3.0-0.148"},{"rt":3424.185000010766,"correct":true,"stimulus":"stimulus/A3.jpg","key_press":65,"total":"exp","test_part":"test_seen","correct_response":"A","trial_type":"categorize-image","trial_index":300,"time_elapsed":796695,"internal_node_id":"0.0-3.0-1.148"},{"rt":null,"stimulus":"<div style=\"font-size:60px;\">+</div>","key_press":null,"test_part":"fixation","trial_type":"html-keyboard-response","trial_index":301,"time_elapsed":797497,"internal_node_id":"0.0-3.0-0.149"},{"rt":4494.825000001583,"correct":true,"stimulus":"stimulus/A5.jpg","key_press":65,"total":"exp","test_part":"train","correct_response":"A","trial_type":"categorize-image","trial_index":302,"time_elapsed":803998,"internal_node_id":"0.0-3.0-1.149"},{"rt":null,"stimulus":"<div style=\"font-size:60px;\">+</div>","key_press":null,"test_part":"fixation","trial_type":"html-keyboard-response","trial_index":303,"time_elapsed":804800,"internal_node_id":"0.0-3.0-0.150"},{"rt":4926.93999997573,"correct":true,"stimulus":"stimulus/B14.jpg","key_press":66,"total":"exp","test_part":"train","correct_response":"B","trial_type":"categorize-image","trial_index":304,"time_elapsed":811735,"internal_node_id":"0.0-3.0-1.150"},{"rt":null,"stimulus":"<div style=\"font-size:60px;\">+</div>","key_press":null,"test_part":"fixation","trial_type":"html-keyboard-response","trial_index":305,"time_elapsed":812538,"internal_node_id":"0.0-3.0-0.151"},{"rt":1954.9000000115484,"correct":true,"stimulus":"stimulus/A7.jpg","key_press":65,"total":"exp","test_part":"train","correct_response":"A","trial_type":"categorize-image","trial_index":306,"time_elapsed":816501,"internal_node_id":"0.0-3.0-1.151"},{"rt":null,"stimulus":"<div style=\"font-size:60px;\">+</div>","key_press":null,"test_part":"fixation","trial_type":"html-keyboard-response","trial_index":307,"time_elapsed":817103,"internal_node_id":"0.0-3.0-0.152"},{"rt":2191.9350000098348,"correct":true,"stimulus":"stimulus/B9.jpg","key_press":66,"total":"exp","test_part":"test_seen","correct_response":"B","trial_type":"categorize-image","trial_index":308,"time_elapsed":821302,"internal_node_id":"0.0-3.0-1.152"},{"rt":null,"stimulus":"<div style=\"font-size:60px;\">+</div>","key_press":null,"test_part":"fixation","trial_type":"html-keyboard-response","trial_index":309,"time_elapsed":821904,"internal_node_id":"0.0-3.0-0.153"},{"rt":3777.040000015404,"correct":true,"stimulus":"stimulus/B12.jpg","key_press":66,"total":"exp","test_part":"train","correct_response":"B","trial_type":"categorize-image","trial_index":310,"time_elapsed":827688,"internal_node_id":"0.0-3.0-1.153"},{"rt":null,"stimulus":"<div style=\"font-size:60px;\">+</div>","key_press":null,"test_part":"fixation","trial_type":"html-keyboard-response","trial_index":311,"time_elapsed":828290,"internal_node_id":"0.0-3.0-0.154"},{"rt":4163.784999982454,"correct":true,"stimulus":"stimulus/A2.jpg","key_press":65,"total":"exp","test_part":"train","correct_response":"A","trial_type":"categorize-image","trial_index":312,"time_elapsed":834461,"internal_node_id":"0.0-3.0-1.154"},{"rt":null,"stimulus":"<div style=\"font-size:60px;\">+</div>","key_press":null,"test_part":"fixation","trial_type":"html-keyboard-response","trial_index":313,"time_elapsed":835263,"internal_node_id":"0.0-3.0-0.155"},{"rt":4840.115000028163,"correct":true,"stimulus":"stimulus/B13.jpg","key_press":66,"total":"exp","test_part":"train","correct_response":"B","trial_type":"categorize-image","trial_index":314,"time_elapsed":842109,"internal_node_id":"0.0-3.0-1.155"},{"rt":null,"stimulus":"<div style=\"font-size:60px;\">+</div>","key_press":null,"test_part":"fixation","trial_type":"html-keyboard-response","trial_index":315,"time_elapsed":842711,"internal_node_id":"0.0-3.0-0.156"},{"rt":2358.37500001071,"correct":true,"stimulus":"stimulus/A3.jpg","key_press":65,"total":"exp","test_part":"test_seen","correct_response":"A","trial_type":"categorize-image","trial_index":316,"time_elapsed":847077,"internal_node_id":"0.0-3.0-1.156"},{"rt":null,"stimulus":"<div style=\"font-size:60px;\">+</div>","key_press":null,"test_part":"fixation","trial_type":"html-keyboard-response","trial_index":317,"time_elapsed":847679,"internal_node_id":"0.0-3.0-0.157"},{"rt":1768.045000033453,"correct":true,"stimulus":"stimulus/A4.jpg","key_press":65,"total":"exp","test_part":"train","correct_response":"A","trial_type":"categorize-image","trial_index":318,"time_elapsed":851453,"internal_node_id":"0.0-3.0-1.157"},{"rt":null,"stimulus":"<div style=\"font-size:60px;\">+</div>","key_press":null,"test_part":"fixation","trial_type":"html-keyboard-response","trial_index":319,"time_elapsed":852056,"internal_node_id":"0.0-3.0-0.158"},{"rt":3054.584999976214,"correct":true,"stimulus":"stimulus/A5.jpg","key_press":65,"total":"exp","test_part":"train","correct_response":"A","trial_type":"categorize-image","trial_index":320,"time_elapsed":857118,"internal_node_id":"0.0-3.0-1.158"},{"rt":null,"stimulus":"<div style=\"font-size:60px;\">+</div>","key_press":null,"test_part":"fixation","trial_type":"html-keyboard-response","trial_index":321,"time_elapsed":857920,"internal_node_id":"0.0-3.0-0.159"},{"rt":1375.9549999958836,"correct":true,"stimulus":"stimulus/B11.jpg","key_press":66,"total":"exp","test_part":"train","correct_response":"B","trial_type":"categorize-image","trial_index":322,"time_elapsed":861304,"internal_node_id":"0.0-3.0-1.159"},{"rt":null,"stimulus":"<div style=\"font-size:60px;\">+</div>","key_press":null,"test_part":"fixation","trial_type":"html-keyboard-response","trial_index":323,"time_elapsed":861905,"internal_node_id":"0.0-3.0-0.160"},{"rt":6398.924999986775,"correct":true,"stimulus":"stimulus/A4.jpg","key_press":65,"total":"exp","test_part":"train","correct_response":"A","trial_type":"categorize-image","trial_index":324,"time_elapsed":870310,"internal_node_id":"0.0-3.0-1.160"},{"rt":null,"stimulus":"<div style=\"font-size:60px;\">+</div>","key_press":null,"test_part":"fixation","trial_type":"html-keyboard-response","trial_index":325,"time_elapsed":870913,"internal_node_id":"0.0-3.0-0.161"},{"rt":1654.335000028368,"correct":true,"stimulus":"stimulus/A7.jpg","key_press":65,"total":"exp","test_part":"train","correct_response":"A","trial_type":"categorize-image","trial_index":326,"time_elapsed":874574,"internal_node_id":"0.0-3.0-1.161"},{"rt":null,"stimulus":"<div style=\"font-size:60px;\">+</div>","key_press":null,"test_part":"fixation","trial_type":"html-keyboard-response","trial_index":327,"time_elapsed":875178,"internal_node_id":"0.0-3.0-0.162"},{"rt":4133.825000026263,"correct":true,"stimulus":"stimulus/A2.jpg","key_press":65,"total":"exp","test_part":"train","correct_response":"A","trial_type":"categorize-image","trial_index":328,"time_elapsed":881318,"internal_node_id":"0.0-3.0-1.162"},{"rt":null,"stimulus":"<div style=\"font-size:60px;\">+</div>","key_press":null,"test_part":"fixation","trial_type":"html-keyboard-response","trial_index":329,"time_elapsed":881919,"internal_node_id":"0.0-3.0-0.163"},{"rt":1480.2000000490807,"correct":true,"stimulus":"stimulus/B12.jpg","key_press":66,"total":"exp","test_part":"train","correct_response":"B","trial_type":"categorize-image","trial_index":330,"time_elapsed":885406,"internal_node_id":"0.0-3.0-1.163"},{"rt":null,"stimulus":"<div style=\"font-size:60px;\">+</div>","key_press":null,"test_part":"fixation","trial_type":"html-keyboard-response","trial_index":331,"time_elapsed":886007,"internal_node_id":"0.0-3.0-0.164"},{"rt":3561.649999988731,"correct":true,"stimulus":"stimulus/B13.jpg","key_press":66,"total":"exp","test_part":"train","correct_response":"B","trial_type":"categorize-image","trial_index":332,"time_elapsed":891575,"internal_node_id":"0.0-3.0-1.164"},{"rt":null,"stimulus":"<div style=\"font-size:60px;\">+</div>","key_press":null,"test_part":"fixation","trial_type":"html-keyboard-response","trial_index":333,"time_elapsed":892177,"internal_node_id":"0.0-3.0-0.165"},{"rt":4357.554999995045,"correct":true,"stimulus":"stimulus/B9.jpg","key_press":66,"total":"exp","test_part":"test_seen","correct_response":"B","trial_type":"categorize-image","trial_index":334,"time_elapsed":898541,"internal_node_id":"0.0-3.0-1.165"},{"rt":null,"stimulus":"<div style=\"font-size:60px;\">+</div>","key_press":null,"test_part":"fixation","trial_type":"html-keyboard-response","trial_index":335,"time_elapsed":899144,"internal_node_id":"0.0-3.0-0.166"},{"rt":1278.3850000123493,"correct":true,"stimulus":"stimulus/B11.jpg","key_press":66,"total":"exp","test_part":"train","correct_response":"B","trial_type":"categorize-image","trial_index":336,"time_elapsed":902430,"internal_node_id":"0.0-3.0-1.166"},{"rt":null,"stimulus":"<div style=\"font-size:60px;\">+</div>","key_press":null,"test_part":"fixation","trial_type":"html-keyboard-response","trial_index":337,"time_elapsed":903032,"internal_node_id":"0.0-3.0-0.167"},{"rt":8510.94499998726,"correct":true,"stimulus":"stimulus/B14.jpg","key_press":66,"total":"exp","test_part":"train","correct_response":"B","trial_type":"categorize-image","trial_index":338,"time_elapsed":913551,"internal_node_id":"0.0-3.0-1.167"},{"rt":null,"stimulus":"<div style=\"font-size:60px;\">+</div>","key_press":null,"test_part":"fixation","trial_type":"html-keyboard-response","trial_index":339,"time_elapsed":914154,"internal_node_id":"0.0-3.0-0.168"},{"rt":1652.0600000512786,"correct":true,"stimulus":"stimulus/A5.jpg","key_press":65,"total":"exp","test_part":"train","correct_response":"A","trial_type":"categorize-image","trial_index":340,"time_elapsed":917813,"internal_node_id":"0.0-3.0-1.168"},{"rt":null,"stimulus":"<div style=\"font-size:60px;\">+</div>","key_press":null,"test_part":"fixation","trial_type":"html-keyboard-response","trial_index":341,"time_elapsed":918416,"internal_node_id":"0.0-3.0-0.169"},{"rt":2708.63000000827,"correct":true,"stimulus":"stimulus/A3.jpg","key_press":65,"total":"exp","test_part":"test_seen","correct_response":"A","trial_type":"categorize-image","trial_index":342,"time_elapsed":923132,"internal_node_id":"0.0-3.0-1.169"},{"rt":null,"stimulus":"<div style=\"font-size:60px;\">+</div>","key_press":null,"test_part":"fixation","trial_type":"html-keyboard-response","trial_index":343,"time_elapsed":923734,"internal_node_id":"0.0-3.0-0.170"},{"rt":1673.1199999921955,"correct":true,"stimulus":"stimulus/A5.jpg","key_press":65,"total":"exp","test_part":"train","correct_response":"A","trial_type":"categorize-image","trial_index":344,"time_elapsed":927413,"internal_node_id":"0.0-3.0-1.170"},{"rt":null,"stimulus":"<div style=\"font-size:60px;\">+</div>","key_press":null,"test_part":"fixation","trial_type":"html-keyboard-response","trial_index":345,"time_elapsed":928015,"internal_node_id":"0.0-3.0-0.171"},{"rt":4271.03999996325,"correct":true,"stimulus":"stimulus/A4.jpg","key_press":65,"total":"exp","test_part":"train","correct_response":"A","trial_type":"categorize-image","trial_index":346,"time_elapsed":934293,"internal_node_id":"0.0-3.0-1.171"},{"rt":null,"stimulus":"<div style=\"font-size:60px;\">+</div>","key_press":null,"test_part":"fixation","trial_type":"html-keyboard-response","trial_index":347,"time_elapsed":934895,"internal_node_id":"0.0-3.0-0.172"},{"rt":1600.1699999906123,"correct":true,"stimulus":"stimulus/A7.jpg","key_press":65,"total":"exp","test_part":"train","correct_response":"A","trial_type":"categorize-image","trial_index":348,"time_elapsed":938503,"internal_node_id":"0.0-3.0-1.172"},{"rt":null,"stimulus":"<div style=\"font-size:60px;\">+</div>","key_press":null,"test_part":"fixation","trial_type":"html-keyboard-response","trial_index":349,"time_elapsed":939105,"internal_node_id":"0.0-3.0-0.173"},{"rt":1237.085000029765,"correct":true,"stimulus":"stimulus/A2.jpg","key_press":65,"total":"exp","test_part":"train","correct_response":"A","trial_type":"categorize-image","trial_index":350,"time_elapsed":942349,"internal_node_id":"0.0-3.0-1.173"},{"rt":null,"stimulus":"<div style=\"font-size:60px;\">+</div>","key_press":null,"test_part":"fixation","trial_type":"html-keyboard-response","trial_index":351,"time_elapsed":942951,"internal_node_id":"0.0-3.0-0.174"},{"rt":3833.26499996474,"correct":true,"stimulus":"stimulus/B12.jpg","key_press":66,"total":"exp","test_part":"train","correct_response":"B","trial_type":"categorize-image","trial_index":352,"time_elapsed":948790,"internal_node_id":"0.0-3.0-1.174"},{"rt":null,"stimulus":"<div style=\"font-size:60px;\">+</div>","key_press":null,"test_part":"fixation","trial_type":"html-keyboard-response","trial_index":353,"time_elapsed":949592,"internal_node_id":"0.0-3.0-0.175"},{"rt":1141.0900000482798,"correct":true,"stimulus":"stimulus/A3.jpg","key_press":65,"total":"exp","test_part":"test_seen","correct_response":"A","trial_type":"categorize-image","trial_index":354,"time_elapsed":952741,"internal_node_id":"0.0-3.0-1.175"},{"rt":null,"stimulus":"<div style=\"font-size:60px;\">+</div>","key_press":null,"test_part":"fixation","trial_type":"html-keyboard-response","trial_index":355,"time_elapsed":953543,"internal_node_id":"0.0-3.0-0.176"},{"rt":2599.965000001248,"correct":true,"stimulus":"stimulus/B13.jpg","key_press":66,"total":"exp","test_part":"train","correct_response":"B","trial_type":"categorize-image","trial_index":356,"time_elapsed":958149,"internal_node_id":"0.0-3.0-1.176"},{"rt":null,"stimulus":"<div style=\"font-size:60px;\">+</div>","key_press":null,"test_part":"fixation","trial_type":"html-keyboard-response","trial_index":357,"time_elapsed":958951,"internal_node_id":"0.0-3.0-0.177"},{"rt":3272.9249999974854,"correct":true,"stimulus":"stimulus/B14.jpg","key_press":66,"total":"exp","test_part":"train","correct_response":"B","trial_type":"categorize-image","trial_index":358,"time_elapsed":964231,"internal_node_id":"0.0-3.0-1.177"},{"rt":null,"stimulus":"<div style=\"font-size:60px;\">+</div>","key_press":null,"test_part":"fixation","trial_type":"html-keyboard-response","trial_index":359,"time_elapsed":965033,"internal_node_id":"0.0-3.0-0.178"},{"rt":1453.9000000222586,"correct":true,"stimulus":"stimulus/B11.jpg","key_press":66,"total":"exp","test_part":"train","correct_response":"B","trial_type":"categorize-image","trial_index":360,"time_elapsed":968492,"internal_node_id":"0.0-3.0-1.178"},{"rt":null,"stimulus":"<div style=\"font-size:60px;\">+</div>","key_press":null,"test_part":"fixation","trial_type":"html-keyboard-response","trial_index":361,"time_elapsed":969294,"internal_node_id":"0.0-3.0-0.179"},{"rt":4946.880000003148,"correct":true,"stimulus":"stimulus/B9.jpg","key_press":66,"total":"exp","test_part":"test_seen","correct_response":"B","trial_type":"categorize-image","trial_index":362,"time_elapsed":976248,"internal_node_id":"0.0-3.0-1.179"},{"rt":12233.539999986533,"stimulus":"<p>This is the testing phase of the experiment. Feedback will NOT be provided in this session. The total number of trials in this phase are 60.<br>Press any key to begin.</p>","key_press":32,"trial_type":"html-keyboard-response","trial_index":363,"time_elapsed":988484,"internal_node_id":"0.0-4.0"},{"rt":null,"stimulus":"<div style=\"font-size:60px;\">+</div>","key_press":null,"test_part":"fixation","trial_type":"html-keyboard-response","trial_index":364,"time_elapsed":989086,"internal_node_id":"0.0-5.0-0.0"},{"rt":7623.589999973774,"correct":false,"stimulus":"stimulus/A6.jpg","key_press":66,"total":"exp","test_part":"test_unseen","correct_response":"A","trial_type":"categorize-image","trial_index":365,"time_elapsed":996718,"internal_node_id":"0.0-5.0-1.0"},{"rt":null,"stimulus":"<div style=\"font-size:60px;\">+</div>","key_press":null,"test_part":"fixation","trial_type":"html-keyboard-response","trial_index":366,"time_elapsed":997521,"internal_node_id":"0.0-5.0-0.1"},{"rt":4470.089999958873,"correct":true,"stimulus":"stimulus/B9.jpg","key_press":66,"total":"exp","test_part":"test_seen","correct_response":"B","trial_type":"categorize-image","trial_index":367,"time_elapsed":1001999,"internal_node_id":"0.0-5.0-1.1"},{"rt":null,"stimulus":"<div style=\"font-size:60px;\">+</div>","key_press":null,"test_part":"fixation","trial_type":"html-keyboard-response","trial_index":368,"time_elapsed":1002602,"internal_node_id":"0.0-5.0-0.2"},{"rt":2980.1899999729358,"correct":true,"stimulus":"stimulus/B10.jpg","key_press":66,"total":"exp","test_part":"test_unseen","correct_response":"B","trial_type":"categorize-image","trial_index":369,"time_elapsed":1005591,"internal_node_id":"0.0-5.0-1.2"},{"rt":null,"stimulus":"<div style=\"font-size:60px;\">+</div>","key_press":null,"test_part":"fixation","trial_type":"html-keyboard-response","trial_index":370,"time_elapsed":1006195,"internal_node_id":"0.0-5.0-0.3"},{"rt":1427.4400000576861,"correct":true,"stimulus":"stimulus/A1.jpg","key_press":65,"total":"exp","test_part":"test_prototype","correct_response":"A","trial_type":"categorize-image","trial_index":371,"time_elapsed":1007629,"internal_node_id":"0.0-5.0-1.3"},{"rt":null,"stimulus":"<div style=\"font-size:60px;\">+</div>","key_press":null,"test_part":"fixation","trial_type":"html-keyboard-response","trial_index":372,"time_elapsed":1008433,"internal_node_id":"0.0-5.0-0.4"},{"rt":1750.8299999753945,"correct":true,"stimulus":"stimulus/B8.jpg","key_press":66,"total":"exp","test_part":"test_prototype","correct_response":"B","trial_type":"categorize-image","trial_index":373,"time_elapsed":1010190,"internal_node_id":"0.0-5.0-1.4"},{"rt":null,"stimulus":"<div style=\"font-size:60px;\">+</div>","key_press":null,"test_part":"fixation","trial_type":"html-keyboard-response","trial_index":374,"time_elapsed":1010794,"internal_node_id":"0.0-5.0-0.5"},{"rt":3821.829999971669,"correct":true,"stimulus":"stimulus/A3.jpg","key_press":65,"total":"exp","test_part":"test_seen","correct_response":"A","trial_type":"categorize-image","trial_index":375,"time_elapsed":1014623,"internal_node_id":"0.0-5.0-1.5"},{"rt":null,"stimulus":"<div style=\"font-size:60px;\">+</div>","key_press":null,"test_part":"fixation","trial_type":"html-keyboard-response","trial_index":376,"time_elapsed":1015226,"internal_node_id":"0.0-5.0-0.6"},{"rt":1692.8349999943748,"correct":true,"stimulus":"stimulus/A1.jpg","key_press":65,"total":"exp","test_part":"test_prototype","correct_response":"A","trial_type":"categorize-image","trial_index":377,"time_elapsed":1016926,"internal_node_id":"0.0-5.0-1.6"},{"rt":null,"stimulus":"<div style=\"font-size:60px;\">+</div>","key_press":null,"test_part":"fixation","trial_type":"html-keyboard-response","trial_index":378,"time_elapsed":1017529,"internal_node_id":"0.0-5.0-0.7"},{"rt":2894.1200000117533,"correct":true,"stimulus":"stimulus/B8.jpg","key_press":66,"total":"exp","test_part":"test_prototype","correct_response":"B","trial_type":"categorize-image","trial_index":379,"time_elapsed":1020430,"internal_node_id":"0.0-5.0-1.7"},{"rt":null,"stimulus":"<div style=\"font-size:60px;\">+</div>","key_press":null,"test_part":"fixation","trial_type":"html-keyboard-response","trial_index":380,"time_elapsed":1021033,"internal_node_id":"0.0-5.0-0.8"},{"rt":4814.794999954756,"correct":true,"stimulus":"stimulus/B10.jpg","key_press":66,"total":"exp","test_part":"test_unseen","correct_response":"B","trial_type":"categorize-image","trial_index":381,"time_elapsed":1025855,"internal_node_id":"0.0-5.0-1.8"},{"rt":null,"stimulus":"<div style=\"font-size:60px;\">+</div>","key_press":null,"test_part":"fixation","trial_type":"html-keyboard-response","trial_index":382,"time_elapsed":1026459,"internal_node_id":"0.0-5.0-0.9"},{"rt":2123.0600000126287,"correct":false,"stimulus":"stimulus/A6.jpg","key_press":66,"total":"exp","test_part":"test_unseen","correct_response":"A","trial_type":"categorize-image","trial_index":383,"time_elapsed":1028591,"internal_node_id":"0.0-5.0-1.9"},{"rt":null,"stimulus":"<div style=\"font-size:60px;\">+</div>","key_press":null,"test_part":"fixation","trial_type":"html-keyboard-response","trial_index":384,"time_elapsed":1029193,"internal_node_id":"0.0-5.0-0.10"},{"rt":4253.150000004098,"correct":true,"stimulus":"stimulus/B9.jpg","key_press":66,"total":"exp","test_part":"test_seen","correct_response":"B","trial_type":"categorize-image","trial_index":385,"time_elapsed":1033454,"internal_node_id":"0.0-5.0-1.10"},{"rt":null,"stimulus":"<div style=\"font-size:60px;\">+</div>","key_press":null,"test_part":"fixation","trial_type":"html-keyboard-response","trial_index":386,"time_elapsed":1034057,"internal_node_id":"0.0-5.0-0.11"},{"rt":2276.784999994561,"correct":true,"stimulus":"stimulus/A3.jpg","key_press":65,"total":"exp","test_part":"test_seen","correct_response":"A","trial_type":"categorize-image","trial_index":387,"time_elapsed":1036343,"internal_node_id":"0.0-5.0-1.11"},{"rt":null,"stimulus":"<div style=\"font-size:60px;\">+</div>","key_press":null,"test_part":"fixation","trial_type":"html-keyboard-response","trial_index":388,"time_elapsed":1036945,"internal_node_id":"0.0-5.0-0.12"},{"rt":1758.3349999622442,"correct":true,"stimulus":"stimulus/B10.jpg","key_press":66,"total":"exp","test_part":"test_unseen","correct_response":"B","trial_type":"categorize-image","trial_index":389,"time_elapsed":1038709,"internal_node_id":"0.0-5.0-1.12"},{"rt":null,"stimulus":"<div style=\"font-size:60px;\">+</div>","key_press":null,"test_part":"fixation","trial_type":"html-keyboard-response","trial_index":390,"time_elapsed":1039311,"internal_node_id":"0.0-5.0-0.13"},{"rt":3094.8950000456534,"correct":true,"stimulus":"stimulus/B9.jpg","key_press":66,"total":"exp","test_part":"test_seen","correct_response":"B","trial_type":"categorize-image","trial_index":391,"time_elapsed":1042413,"internal_node_id":"0.0-5.0-1.13"},{"rt":null,"stimulus":"<div style=\"font-size:60px;\">+</div>","key_press":null,"test_part":"fixation","trial_type":"html-keyboard-response","trial_index":392,"time_elapsed":1043217,"internal_node_id":"0.0-5.0-0.14"},{"rt":3157.7800000086427,"correct":true,"stimulus":"stimulus/B8.jpg","key_press":66,"total":"exp","test_part":"test_prototype","correct_response":"B","trial_type":"categorize-image","trial_index":393,"time_elapsed":1046383,"internal_node_id":"0.0-5.0-1.14"},{"rt":null,"stimulus":"<div style=\"font-size:60px;\">+</div>","key_press":null,"test_part":"fixation","trial_type":"html-keyboard-response","trial_index":394,"time_elapsed":1047185,"internal_node_id":"0.0-5.0-0.15"},{"rt":1093.4899999992922,"correct":true,"stimulus":"stimulus/A1.jpg","key_press":65,"total":"exp","test_part":"test_prototype","correct_response":"A","trial_type":"categorize-image","trial_index":395,"time_elapsed":1048285,"internal_node_id":"0.0-5.0-1.15"},{"rt":null,"stimulus":"<div style=\"font-size:60px;\">+</div>","key_press":null,"test_part":"fixation","trial_type":"html-keyboard-response","trial_index":396,"time_elapsed":1048889,"internal_node_id":"0.0-5.0-0.16"},{"rt":2109.854999987874,"correct":false,"stimulus":"stimulus/A6.jpg","key_press":66,"total":"exp","test_part":"test_unseen","correct_response":"A","trial_type":"categorize-image","trial_index":397,"time_elapsed":1051005,"internal_node_id":"0.0-5.0-1.16"},{"rt":null,"stimulus":"<div style=\"font-size:60px;\">+</div>","key_press":null,"test_part":"fixation","trial_type":"html-keyboard-response","trial_index":398,"time_elapsed":1051808,"internal_node_id":"0.0-5.0-0.17"},{"rt":3205.3849999792874,"correct":true,"stimulus":"stimulus/A3.jpg","key_press":65,"total":"exp","test_part":"test_seen","correct_response":"A","trial_type":"categorize-image","trial_index":399,"time_elapsed":1055025,"internal_node_id":"0.0-5.0-1.17"},{"rt":null,"stimulus":"<div style=\"font-size:60px;\">+</div>","key_press":null,"test_part":"fixation","trial_type":"html-keyboard-response","trial_index":400,"time_elapsed":1055828,"internal_node_id":"0.0-5.0-0.18"},{"rt":1362.98999999417,"correct":true,"stimulus":"stimulus/B8.jpg","key_press":66,"total":"exp","test_part":"test_prototype","correct_response":"B","trial_type":"categorize-image","trial_index":401,"time_elapsed":1057198,"internal_node_id":"0.0-5.0-1.18"},{"rt":null,"stimulus":"<div style=\"font-size:60px;\">+</div>","key_press":null,"test_part":"fixation","trial_type":"html-keyboard-response","trial_index":402,"time_elapsed":1057800,"internal_node_id":"0.0-5.0-0.19"},{"rt":1413.9299999806099,"correct":false,"stimulus":"stimulus/B9.jpg","key_press":65,"total":"exp","test_part":"test_seen","correct_response":"B","trial_type":"categorize-image","trial_index":403,"time_elapsed":1059223,"internal_node_id":"0.0-5.0-1.19"},{"rt":null,"stimulus":"<div style=\"font-size:60px;\">+</div>","key_press":null,"test_part":"fixation","trial_type":"html-keyboard-response","trial_index":404,"time_elapsed":1060025,"internal_node_id":"0.0-5.0-0.20"},{"rt":4478.134999983013,"correct":true,"stimulus":"stimulus/B10.jpg","key_press":66,"total":"exp","test_part":"test_unseen","correct_response":"B","trial_type":"categorize-image","trial_index":405,"time_elapsed":1064509,"internal_node_id":"0.0-5.0-1.20"},{"rt":null,"stimulus":"<div style=\"font-size:60px;\">+</div>","key_press":null,"test_part":"fixation","trial_type":"html-keyboard-response","trial_index":406,"time_elapsed":1065113,"internal_node_id":"0.0-5.0-0.21"},{"rt":1237.1600000187755,"correct":true,"stimulus":"stimulus/A1.jpg","key_press":65,"total":"exp","test_part":"test_prototype","correct_response":"A","trial_type":"categorize-image","trial_index":407,"time_elapsed":1066357,"internal_node_id":"0.0-5.0-1.21"},{"rt":null,"stimulus":"<div style=\"font-size:60px;\">+</div>","key_press":null,"test_part":"fixation","trial_type":"html-keyboard-response","trial_index":408,"time_elapsed":1067160,"internal_node_id":"0.0-5.0-0.22"},{"rt":3774.7800000361167,"correct":true,"stimulus":"stimulus/A3.jpg","key_press":65,"total":"exp","test_part":"test_seen","correct_response":"A","trial_type":"categorize-image","trial_index":409,"time_elapsed":1070943,"internal_node_id":"0.0-5.0-1.22"},{"rt":null,"stimulus":"<div style=\"font-size:60px;\">+</div>","key_press":null,"test_part":"fixation","trial_type":"html-keyboard-response","trial_index":410,"time_elapsed":1071746,"internal_node_id":"0.0-5.0-0.23"},{"rt":2468.4000000124797,"correct":false,"stimulus":"stimulus/A6.jpg","key_press":66,"total":"exp","test_part":"test_unseen","correct_response":"A","trial_type":"categorize-image","trial_index":411,"time_elapsed":1074221,"internal_node_id":"0.0-5.0-1.23"},{"rt":null,"stimulus":"<div style=\"font-size:60px;\">+</div>","key_press":null,"test_part":"fixation","trial_type":"html-keyboard-response","trial_index":412,"time_elapsed":1074824,"internal_node_id":"0.0-5.0-0.24"},{"rt":8560.095000022557,"correct":true,"stimulus":"stimulus/B8.jpg","key_press":66,"total":"exp","test_part":"test_prototype","correct_response":"B","trial_type":"categorize-image","trial_index":413,"time_elapsed":1083390,"internal_node_id":"0.0-5.0-1.24"},{"rt":null,"stimulus":"<div style=\"font-size:60px;\">+</div>","key_press":null,"test_part":"fixation","trial_type":"html-keyboard-response","trial_index":414,"time_elapsed":1084193,"internal_node_id":"0.0-5.0-0.25"},{"rt":4397.549999994226,"correct":true,"stimulus":"stimulus/B9.jpg","key_press":66,"total":"exp","test_part":"test_seen","correct_response":"B","trial_type":"categorize-image","trial_index":415,"time_elapsed":1088598,"internal_node_id":"0.0-5.0-1.25"},{"rt":null,"stimulus":"<div style=\"font-size:60px;\">+</div>","key_press":null,"test_part":"fixation","trial_type":"html-keyboard-response","trial_index":416,"time_elapsed":1089201,"internal_node_id":"0.0-5.0-0.26"},{"rt":1405.330000037793,"correct":true,"stimulus":"stimulus/A1.jpg","key_press":65,"total":"exp","test_part":"test_prototype","correct_response":"A","trial_type":"categorize-image","trial_index":417,"time_elapsed":1090614,"internal_node_id":"0.0-5.0-1.26"},{"rt":null,"stimulus":"<div style=\"font-size:60px;\">+</div>","key_press":null,"test_part":"fixation","trial_type":"html-keyboard-response","trial_index":418,"time_elapsed":1091216,"internal_node_id":"0.0-5.0-0.27"},{"rt":5879.1349999955855,"correct":true,"stimulus":"stimulus/B10.jpg","key_press":66,"total":"exp","test_part":"test_unseen","correct_response":"B","trial_type":"categorize-image","trial_index":419,"time_elapsed":1097103,"internal_node_id":"0.0-5.0-1.27"},{"rt":null,"stimulus":"<div style=\"font-size:60px;\">+</div>","key_press":null,"test_part":"fixation","trial_type":"html-keyboard-response","trial_index":420,"time_elapsed":1097905,"internal_node_id":"0.0-5.0-0.28"},{"rt":2333.6850000196137,"correct":true,"stimulus":"stimulus/A6.jpg","key_press":65,"total":"exp","test_part":"test_unseen","correct_response":"A","trial_type":"categorize-image","trial_index":421,"time_elapsed":1100246,"internal_node_id":"0.0-5.0-1.28"},{"rt":null,"stimulus":"<div style=\"font-size:60px;\">+</div>","key_press":null,"test_part":"fixation","trial_type":"html-keyboard-response","trial_index":422,"time_elapsed":1100849,"internal_node_id":"0.0-5.0-0.29"},{"rt":3133.159999968484,"correct":true,"stimulus":"stimulus/A3.jpg","key_press":65,"total":"exp","test_part":"test_seen","correct_response":"A","trial_type":"categorize-image","trial_index":423,"time_elapsed":1103990,"internal_node_id":"0.0-5.0-1.29"},{"rt":null,"stimulus":"<div style=\"font-size:60px;\">+</div>","key_press":null,"test_part":"fixation","trial_type":"html-keyboard-response","trial_index":424,"time_elapsed":1104594,"internal_node_id":"0.0-5.0-0.30"},{"rt":1164.1449999879114,"correct":true,"stimulus":"stimulus/A1.jpg","key_press":65,"total":"exp","test_part":"test_prototype","correct_response":"A","trial_type":"categorize-image","trial_index":425,"time_elapsed":1105767,"internal_node_id":"0.0-5.0-1.30"},{"rt":null,"stimulus":"<div style=\"font-size:60px;\">+</div>","key_press":null,"test_part":"fixation","trial_type":"html-keyboard-response","tr